participant_id,language_group,german_level,learning_duration,start_time,end_time,trial,sentence,condition,expected,response,response_time,correct,Complexité,Ambiguité
PMK8FE11WX5I4,pt,A2,,2026-01-10T14:53:55.028Z,2026-01-10T15:04:36.268Z,1,Er bringt sie die Zeitung,simple_ambiguous,ungrammatical,ungrammatical,7240,True,simple,ambiguous
PMK8FE11WX5I4,pt,A2,,2026-01-10T14:53:55.028Z,2026-01-10T15:04:36.268Z,2,"Sie lachen, denn sie sind glücklich",complex_non_ambiguous,grammatical,grammatical,7697,True,complex,non_ambiguous
PMK8FE11WX5I4,pt,A2,,2026-01-10T14:53:55.028Z,2026-01-10T15:04:36.268Z,3,Er ruft mich jeden Sonntag an,simple_non_ambiguous,grammatical,grammatical,7637,True,simple,non_ambiguous
PMK8FE11WX5I4,pt,A2,,2026-01-10T14:53:55.028Z,2026-01-10T15:04:36.268Z,4,Mit viel Freude hat die Großmutter die Schokolade gegessen,simple_non_ambiguous,grammatical,grammatical,5818,True,simple,non_ambiguous
PMK8FE11WX5I4,pt,A2,,2026-01-10T14:53:55.028Z,2026-01-10T15:04:36.268Z,5,Langsam fährt das Auto die Straße entlang,simple_non_ambiguous,grammatical,grammatical,7382,True,simple,non_ambiguous
PMK8FE11WX5I4,pt,A2,,2026-01-10T14:53:55.028Z,2026-01-10T15:04:36.268Z,6,Sie liebt ihn,simple_non_ambiguous,grammatical,ungrammatical,6469,False,simple,non_ambiguous
PMK8FE11WX5I4,pt,A2,,2026-01-10T14:53:55.028Z,2026-01-10T15:04:36.268Z,7,Den Alien erschreckt das Kind,simple_ambiguous,grammatical,ungrammatical,6853,False,simple,ambiguous
PMK8FE11WX5I4,pt,A2,,2026-01-10T14:53:55.028Z,2026-01-10T15:04:36.268Z,8,Ich aufstehe jeden Tag um sieben Uhr,simple_ambiguous,ungrammatical,grammatical,6036,False,simple,ambiguous
PMK8FE11WX5I4,pt,A2,,2026-01-10T14:53:55.028Z,2026-01-10T15:04:36.268Z,9,Ich kann nicht einschlafen,simple_non_ambiguous,grammatical,ungrammatical,5620,False,simple,non_ambiguous
PMK8FE11WX5I4,pt,A2,,2026-01-10T14:53:55.028Z,2026-01-10T15:04:36.268Z,10,Sie liebt er,simple_ambiguous,ungrammatical,ungrammatical,6103,True,simple,ambiguous
PMK8FE11WX5I4,pt,A2,,2026-01-10T14:53:55.028Z,2026-01-10T15:04:36.268Z,11,"Sie kommt nicht, da sie ist sehr krank",complex_ambiguous,ungrammatical,ungrammatical,3009,True,complex,ambiguous
PMK8FE11WX5I4,pt,A2,,2026-01-10T14:53:55.028Z,2026-01-10T15:04:36.268Z,12,Du räumst dein Zimmer auf,simple_non_ambiguous,grammatical,grammatical,5755,True,simple,non_ambiguous
PMK8FE11WX5I4,pt,A2,,2026-01-10T14:53:55.028Z,2026-01-10T15:04:36.268Z,13,Sie aufmacht das Fenster,simple_ambiguous,ungrammatical,ungrammatical,5810,True,simple,ambiguous
PMK8FE11WX5I4,pt,A2,,2026-01-10T14:53:55.028Z,2026-01-10T15:04:36.268Z,14,Den Kater jagt der Hund,simple_ambiguous,grammatical,ungrammatical,7416,False,simple,ambiguous
PMK8FE11WX5I4,pt,A2,,2026-01-10T14:53:55.028Z,2026-01-10T15:04:36.268Z,15,Ich höre dir,simple_ambiguous,ungrammatical,grammatical,5987,False,simple,ambiguous
PMK8FE11WX5I4,pt,A2,,2026-01-10T14:53:55.028Z,2026-01-10T15:04:36.268Z,16,Sie zeigt mich den Weg,simple_ambiguous,ungrammatical,grammatical,5732,False,simple,ambiguous
PMK8FE11WX5I4,pt,A2,,2026-01-10T14:53:55.028Z,2026-01-10T15:04:36.268Z,17,Mach das Licht an,simple_non_ambiguous,grammatical,grammatical,5621,True,simple,non_ambiguous
PMK8FE11WX5I4,pt,A2,,2026-01-10T14:53:55.028Z,2026-01-10T15:04:36.268Z,18,Wir geben ihr die Schlüssel,simple_non_ambiguous,grammatical,ungrammatical,6642,False,simple,non_ambiguous
PMK8FE11WX5I4,pt,A2,,2026-01-10T14:53:55.028Z,2026-01-10T15:04:36.268Z,19,Ich gebe ihm das Buch,simple_non_ambiguous,grammatical,ungrammatical,6058,False,simple,non_ambiguous
PMK8FE11WX5I4,pt,A2,,2026-01-10T14:53:55.028Z,2026-01-10T15:04:36.268Z,20,Wann kommst du in Berlin an?,simple_non_ambiguous,grammatical,grammatical,6049,True,simple,non_ambiguous
PMK8FE11WX5I4,pt,A2,,2026-01-10T14:53:55.028Z,2026-01-10T15:04:36.268Z,21,sie steht jeden Tag um sechs Uhr auf,simple_non_ambiguous,grammatical,grammatical,5686,True,simple,non_ambiguous
PMK8FE11WX5I4,pt,A2,,2026-01-10T14:53:55.028Z,2026-01-10T15:04:36.268Z,22,"Ihr seid eingeladen, wenn Ihr Zeit habt",complex_non_ambiguous,grammatical,grammatical,7168,True,complex,non_ambiguous
PMK8FE11WX5I4,pt,A2,,2026-01-10T14:53:55.028Z,2026-01-10T15:04:36.268Z,23,"Er ist müde, weil er hat spät ins Bett gegangen",complex_ambiguous,ungrammatical,ungrammatical,3873,True,complex,ambiguous
PMK8FE11WX5I4,pt,A2,,2026-01-10T14:53:55.028Z,2026-01-10T15:04:36.268Z,24,"Ich erkläre es, damit er es versteht",complex_non_ambiguous,grammatical,grammatical,6615,True,complex,non_ambiguous
PMK8FE11WX5I4,pt,A2,,2026-01-10T14:53:55.028Z,2026-01-10T15:04:36.268Z,25,Sie zeigt mir den Weg,simple_non_ambiguous,grammatical,ungrammatical,5029,False,simple,non_ambiguous
PMK8FE11WX5I4,pt,A2,,2026-01-10T14:53:55.028Z,2026-01-10T15:04:36.268Z,26,Sie macht das Fenster auf,simple_non_ambiguous,grammatical,ungrammatical,5392,False,simple,non_ambiguous
PMK8FE11WX5I4,pt,A2,,2026-01-10T14:53:55.028Z,2026-01-10T15:04:36.268Z,27,"Wir wissen nicht, ob er bei der Prüfung betrogen hat.",complex_non_ambiguous,grammatical,grammatical,5596,True,complex,non_ambiguous
PMK8FE11WX5I4,pt,A2,,2026-01-10T14:53:55.028Z,2026-01-10T15:04:36.268Z,28,Mach an das Licht!,simple_ambiguous,ungrammatical,grammatical,5684,False,simple,ambiguous
PMK8FE11WX5I4,pt,A2,,2026-01-10T14:53:55.028Z,2026-01-10T15:04:36.268Z,29,"Er trinkt, weil er Durst hat",complex_non_ambiguous,grammatical,grammatical,5572,True,complex,non_ambiguous
PMK8FE11WX5I4,pt,A2,,2026-01-10T14:53:55.028Z,2026-01-10T15:04:36.268Z,30,Er anruft mich jeden Sonntag,simple_ambiguous,ungrammatical,ungrammatical,4654,True,simple,ambiguous
PMK8FE11WX5I4,pt,A2,,2026-01-10T14:53:55.028Z,2026-01-10T15:04:36.268Z,31,Ich höre euch,simple_non_ambiguous,grammatical,grammatical,5125,True,simple,non_ambiguous
PMK8FE11WX5I4,pt,A2,,2026-01-10T14:53:55.028Z,2026-01-10T15:04:36.268Z,32,Ich kann nicht schlafen ein.,simple_ambiguous,ungrammatical,ungrammatical,6924,True,simple,ambiguous
PMK8FE11WX5I4,pt,A2,,2026-01-10T14:53:55.028Z,2026-01-10T15:04:36.268Z,33,"Er bleibt zu Hause, während seine arbeitet Frau",complex_ambiguous,ungrammatical,ungrammatical,4035,True,complex,ambiguous
PMK8FE11WX5I4,pt,A2,,2026-01-10T14:53:55.028Z,2026-01-10T15:04:36.268Z,34,Sie kommen morgen an,simple_non_ambiguous,grammatical,ungrammatical,5771,False,simple,non_ambiguous
PMK8FE11WX5I4,pt,A2,,2026-01-10T14:53:55.028Z,2026-01-10T15:04:36.268Z,35,"Ich gehe raus, obwohl das Wetter schlecht ist.",complex_non_ambiguous,grammatical,ungrammatical,7412,False,complex,non_ambiguous
PMK8FE11WX5I4,pt,A2,,2026-01-10T14:53:55.028Z,2026-01-10T15:04:36.268Z,36,Ich schenke dir eine Blume,simple_non_ambiguous,grammatical,ungrammatical,4035,False,simple,non_ambiguous
PMK8FE11WX5I4,pt,A2,,2026-01-10T14:53:55.028Z,2026-01-10T15:04:36.268Z,37,Wir geben sie die Schlüssel,simple_ambiguous,ungrammatical,ungrammatical,5723,True,simple,ambiguous
PMK8FE11WX5I4,pt,A2,,2026-01-10T14:53:55.028Z,2026-01-10T15:04:36.268Z,38,"Sie lernt Deutsch, seit sie wohnt in Berlin",complex_ambiguous,ungrammatical,grammatical,3264,False,complex,ambiguous
PMK8FE11WX5I4,pt,A2,,2026-01-10T14:53:55.028Z,2026-01-10T15:04:36.268Z,39,"Er kauft Blumen, bevor er geht nach Hause",complex_ambiguous,ungrammatical,grammatical,2177,False,complex,ambiguous
PMK8FE11WX5I4,pt,A2,,2026-01-10T14:53:55.028Z,2026-01-10T15:04:36.268Z,40,Er sieht mich,simple_non_ambiguous,grammatical,grammatical,4600,True,simple,non_ambiguous
PMK8FE11WX5I4,pt,A2,,2026-01-10T14:53:55.028Z,2026-01-10T15:04:36.268Z,41,Ich schenke dich eine Blume,simple_ambiguous,ungrammatical,grammatical,5086,False,simple,ambiguous
PMK8FE11WX5I4,pt,A2,,2026-01-10T14:53:55.028Z,2026-01-10T15:04:36.268Z,42,"Wir fahren in Urlaub, nachdem wir haben gespart",complex_ambiguous,ungrammatical,ungrammatical,4812,True,complex,ambiguous
PMK8FE11WX5I4,pt,A2,,2026-01-10T14:53:55.028Z,2026-01-10T15:04:36.268Z,43,"Ich rufe dich an, sobald ich habe Zeit",complex_ambiguous,ungrammatical,grammatical,4675,False,complex,ambiguous
PMK8FE11WX5I4,pt,A2,,2026-01-10T14:53:55.028Z,2026-01-10T15:04:36.268Z,44,Sie ankommen morgen,simple_ambiguous,ungrammatical,grammatical,6628,False,simple,ambiguous
PMK8FE11WX5I4,pt,A2,,2026-01-10T14:53:55.028Z,2026-01-10T15:04:36.268Z,45,Wann ankommst du in Berlin?,simple_ambiguous,ungrammatical,grammatical,5146,False,simple,ambiguous
PMK8FE11WX5I4,pt,A2,,2026-01-10T14:53:55.028Z,2026-01-10T15:04:36.268Z,46,"Wir bleiben drinnen, falls es regnet heute",complex_non_ambiguous,ungrammatical,grammatical,7279,False,complex,non_ambiguous
PMK8FE11WX5I4,pt,A2,,2026-01-10T14:53:55.028Z,2026-01-10T15:04:36.268Z,47,"Er schläft, da er müde ist.",complex_non_ambiguous,grammatical,grammatical,5670,True,complex,non_ambiguous
PMK8FE11WX5I4,pt,A2,,2026-01-10T14:53:55.028Z,2026-01-10T15:04:36.268Z,48,Er bringt ihnen die Zeitung,simple_non_ambiguous,grammatical,ungrammatical,3988,False,simple,non_ambiguous
PMK8FE11WX5I4,pt,A2,,2026-01-10T14:53:55.028Z,2026-01-10T15:04:36.268Z,49,Ich gebe er das Buch,simple_ambiguous,ungrammatical,grammatical,4406,False,simple,ambiguous
PMK8FE11WX5I4,pt,A2,,2026-01-10T14:53:55.028Z,2026-01-10T15:04:36.268Z,50,Den Ball jagt der Hund im Garten,simple_ambiguous,grammatical,ungrammatical,3927,False,simple,ambiguous
PMK8FE11WX5I4,pt,A2,,2026-01-10T14:53:55.028Z,2026-01-10T15:04:36.268Z,51,Der Spielerin gibt das Kind den Ball,simple_ambiguous,grammatical,grammatical,3997,True,simple,ambiguous
PMK8FE11WX5I4,pt,A2,,2026-01-10T14:53:55.028Z,2026-01-10T15:04:36.268Z,52,"Ich verstehe, dass du mitkommen willst",complex_non_ambiguous,grammatical,ungrammatical,5493,False,complex,non_ambiguous
PMK8FE11WX5I4,pt,A2,,2026-01-10T14:53:55.028Z,2026-01-10T15:04:36.268Z,53,Die Großmutter hat die Schokolade gegessen,simple_non_ambiguous,grammatical,grammatical,3930,True,simple,non_ambiguous
PMK8FE11WX5I4,pt,A2,,2026-01-10T14:53:55.028Z,2026-01-10T15:04:36.268Z,54,Im Park spielen die Kinder Fußball,simple_non_ambiguous,grammatical,grammatical,5244,True,simple,non_ambiguous
PMK8FE11WX5I4,pt,A2,,2026-01-10T14:53:55.028Z,2026-01-10T15:04:36.268Z,55,Er sieht mir,simple_ambiguous,ungrammatical,ungrammatical,3329,True,simple,ambiguous
PMK8FE11WX5I4,pt,A2,,2026-01-10T14:53:55.028Z,2026-01-10T15:04:36.268Z,56,du aufräumst dein Zimmer.,simple_ambiguous,ungrammatical,grammatical,3474,False,simple,ambiguous
PMK8FE1222V3W,pt,A2,,2026-01-10T14:53:55.034Z,2026-01-10T15:04:07.168Z,1,Wir geben sie die Schlüssel,simple_ambiguous,ungrammatical,ungrammatical,2285,True,simple,ambiguous
PMK8FE1222V3W,pt,A2,,2026-01-10T14:53:55.034Z,2026-01-10T15:04:07.168Z,2,"Wir fahren in Urlaub, nachdem wir haben gespart",complex_ambiguous,ungrammatical,grammatical,7605,False,complex,ambiguous
PMK8FE1222V3W,pt,A2,,2026-01-10T14:53:55.034Z,2026-01-10T15:04:07.168Z,3,Du räumst dein Zimmer auf,simple_non_ambiguous,grammatical,grammatical,4587,True,simple,non_ambiguous
PMK8FE1222V3W,pt,A2,,2026-01-10T14:53:55.034Z,2026-01-10T15:04:07.168Z,4,"Sie kommt nicht, da sie ist sehr krank",complex_ambiguous,ungrammatical,grammatical,7920,False,complex,ambiguous
PMK8FE1222V3W,pt,A2,,2026-01-10T14:53:55.034Z,2026-01-10T15:04:07.168Z,5,Sie liebt ihn,simple_non_ambiguous,grammatical,ungrammatical,5455,False,simple,non_ambiguous
PMK8FE1222V3W,pt,A2,,2026-01-10T14:53:55.034Z,2026-01-10T15:04:07.168Z,6,"Ich erkläre es, damit er es versteht",complex_non_ambiguous,grammatical,ungrammatical,5264,False,complex,non_ambiguous
PMK8FE1222V3W,pt,A2,,2026-01-10T14:53:55.034Z,2026-01-10T15:04:07.168Z,7,Ich aufstehe jeden Tag um sieben Uhr,simple_ambiguous,ungrammatical,grammatical,2670,False,simple,ambiguous
PMK8FE1222V3W,pt,A2,,2026-01-10T14:53:55.034Z,2026-01-10T15:04:07.168Z,8,Er sieht mir,simple_ambiguous,ungrammatical,ungrammatical,3591,True,simple,ambiguous
PMK8FE1222V3W,pt,A2,,2026-01-10T14:53:55.034Z,2026-01-10T15:04:07.168Z,9,Er bringt ihnen die Zeitung,simple_non_ambiguous,grammatical,grammatical,5709,True,simple,non_ambiguous
PMK8FE1222V3W,pt,A2,,2026-01-10T14:53:55.034Z,2026-01-10T15:04:07.168Z,10,Ich höre euch,simple_non_ambiguous,grammatical,grammatical,5862,True,simple,non_ambiguous
PMK8FE1222V3W,pt,A2,,2026-01-10T14:53:55.034Z,2026-01-10T15:04:07.168Z,11,"Er ist müde, weil er hat spät ins Bett gegangen",complex_ambiguous,ungrammatical,ungrammatical,6947,True,complex,ambiguous
PMK8FE1222V3W,pt,A2,,2026-01-10T14:53:55.034Z,2026-01-10T15:04:07.168Z,12,Im Park spielen die Kinder Fußball,simple_non_ambiguous,grammatical,grammatical,5964,True,simple,non_ambiguous
PMK8FE1222V3W,pt,A2,,2026-01-10T14:53:55.034Z,2026-01-10T15:04:07.168Z,13,Sie liebt er,simple_ambiguous,ungrammatical,grammatical,2395,False,simple,ambiguous
PMK8FE1222V3W,pt,A2,,2026-01-10T14:53:55.034Z,2026-01-10T15:04:07.168Z,14,"Ich gehe raus, obwohl das Wetter schlecht ist.",complex_non_ambiguous,grammatical,grammatical,5898,True,complex,non_ambiguous
PMK8FE1222V3W,pt,A2,,2026-01-10T14:53:55.034Z,2026-01-10T15:04:07.168Z,15,Mach das Licht an,simple_non_ambiguous,grammatical,ungrammatical,5993,False,simple,non_ambiguous
PMK8FE1222V3W,pt,A2,,2026-01-10T14:53:55.034Z,2026-01-10T15:04:07.168Z,16,Den Ball jagt der Hund im Garten,simple_ambiguous,grammatical,ungrammatical,3518,False,simple,ambiguous
PMK8FE1222V3W,pt,A2,,2026-01-10T14:53:55.034Z,2026-01-10T15:04:07.168Z,17,Ich schenke dir eine Blume,simple_non_ambiguous,grammatical,ungrammatical,6035,False,simple,non_ambiguous
PMK8FE1222V3W,pt,A2,,2026-01-10T14:53:55.034Z,2026-01-10T15:04:07.168Z,18,"Er trinkt, weil er Durst hat",complex_non_ambiguous,grammatical,grammatical,5348,True,complex,non_ambiguous
PMK8FE1222V3W,pt,A2,,2026-01-10T14:53:55.034Z,2026-01-10T15:04:07.168Z,19,Sie aufmacht das Fenster,simple_ambiguous,ungrammatical,grammatical,2122,False,simple,ambiguous
PMK8FE1222V3W,pt,A2,,2026-01-10T14:53:55.034Z,2026-01-10T15:04:07.168Z,20,Wir geben ihr die Schlüssel,simple_non_ambiguous,grammatical,grammatical,5872,True,simple,non_ambiguous
PMK8FE1222V3W,pt,A2,,2026-01-10T14:53:55.034Z,2026-01-10T15:04:07.168Z,21,Sie kommen morgen an,simple_non_ambiguous,grammatical,grammatical,4690,True,simple,non_ambiguous
PMK8FE1222V3W,pt,A2,,2026-01-10T14:53:55.034Z,2026-01-10T15:04:07.168Z,22,Er ruft mich jeden Sonntag an,simple_non_ambiguous,grammatical,grammatical,5376,True,simple,non_ambiguous
PMK8FE1222V3W,pt,A2,,2026-01-10T14:53:55.034Z,2026-01-10T15:04:07.168Z,23,Wann kommst du in Berlin an?,simple_non_ambiguous,grammatical,grammatical,4483,True,simple,non_ambiguous
PMK8FE1222V3W,pt,A2,,2026-01-10T14:53:55.034Z,2026-01-10T15:04:07.168Z,24,Den Alien erschreckt das Kind,simple_ambiguous,grammatical,ungrammatical,4184,False,simple,ambiguous
PMK8FE1222V3W,pt,A2,,2026-01-10T14:53:55.034Z,2026-01-10T15:04:07.168Z,25,Er bringt sie die Zeitung,simple_ambiguous,ungrammatical,ungrammatical,2968,True,simple,ambiguous
PMK8FE1222V3W,pt,A2,,2026-01-10T14:53:55.034Z,2026-01-10T15:04:07.168Z,26,Der Spielerin gibt das Kind den Ball,simple_ambiguous,grammatical,grammatical,3990,True,simple,ambiguous
PMK8FE1222V3W,pt,A2,,2026-01-10T14:53:55.034Z,2026-01-10T15:04:07.168Z,27,Sie macht das Fenster auf,simple_non_ambiguous,grammatical,ungrammatical,4922,False,simple,non_ambiguous
PMK8FE1222V3W,pt,A2,,2026-01-10T14:53:55.034Z,2026-01-10T15:04:07.168Z,28,"Er kauft Blumen, bevor er geht nach Hause",complex_ambiguous,ungrammatical,grammatical,6218,False,complex,ambiguous
PMK8FE1222V3W,pt,A2,,2026-01-10T14:53:55.034Z,2026-01-10T15:04:07.168Z,29,Sie zeigt mir den Weg,simple_non_ambiguous,grammatical,grammatical,4759,True,simple,non_ambiguous
PMK8FE1222V3W,pt,A2,,2026-01-10T14:53:55.034Z,2026-01-10T15:04:07.168Z,30,Mach an das Licht!,simple_ambiguous,ungrammatical,ungrammatical,2847,True,simple,ambiguous
PMK8FE1222V3W,pt,A2,,2026-01-10T14:53:55.034Z,2026-01-10T15:04:07.168Z,31,"Er bleibt zu Hause, während seine arbeitet Frau",complex_ambiguous,ungrammatical,ungrammatical,6297,True,complex,ambiguous
PMK8FE1222V3W,pt,A2,,2026-01-10T14:53:55.034Z,2026-01-10T15:04:07.168Z,32,Den Kater jagt der Hund,simple_ambiguous,grammatical,grammatical,4188,True,simple,ambiguous
PMK8FE1222V3W,pt,A2,,2026-01-10T14:53:55.034Z,2026-01-10T15:04:07.168Z,33,du aufräumst dein Zimmer.,simple_ambiguous,ungrammatical,ungrammatical,4561,True,simple,ambiguous
PMK8FE1222V3W,pt,A2,,2026-01-10T14:53:55.034Z,2026-01-10T15:04:07.168Z,34,Er sieht mich,simple_non_ambiguous,grammatical,grammatical,5422,True,simple,non_ambiguous
PMK8FE1222V3W,pt,A2,,2026-01-10T14:53:55.034Z,2026-01-10T15:04:07.168Z,35,"Ihr seid eingeladen, wenn Ihr Zeit habt",complex_non_ambiguous,grammatical,ungrammatical,6152,False,complex,non_ambiguous
PMK8FE1222V3W,pt,A2,,2026-01-10T14:53:55.034Z,2026-01-10T15:04:07.168Z,36,Sie zeigt mich den Weg,simple_ambiguous,ungrammatical,grammatical,4587,False,simple,ambiguous
PMK8FE1222V3W,pt,A2,,2026-01-10T14:53:55.034Z,2026-01-10T15:04:07.168Z,37,Sie ankommen morgen,simple_ambiguous,ungrammatical,grammatical,3278,False,simple,ambiguous
PMK8FE1222V3W,pt,A2,,2026-01-10T14:53:55.034Z,2026-01-10T15:04:07.168Z,38,"Ich verstehe, dass du mitkommen willst",complex_non_ambiguous,grammatical,grammatical,6678,True,complex,non_ambiguous
PMK8FE1222V3W,pt,A2,,2026-01-10T14:53:55.034Z,2026-01-10T15:04:07.168Z,39,Ich kann nicht einschlafen,simple_non_ambiguous,grammatical,grammatical,5794,True,simple,non_ambiguous
PMK8FE1222V3W,pt,A2,,2026-01-10T14:53:55.034Z,2026-01-10T15:04:07.168Z,40,"Sie lachen, denn sie sind glücklich",complex_non_ambiguous,grammatical,grammatical,4779,True,complex,non_ambiguous
PMK8FE1222V3W,pt,A2,,2026-01-10T14:53:55.034Z,2026-01-10T15:04:07.168Z,41,Langsam fährt das Auto die Straße entlang,simple_non_ambiguous,grammatical,grammatical,4634,True,simple,non_ambiguous
PMK8FE1222V3W,pt,A2,,2026-01-10T14:53:55.034Z,2026-01-10T15:04:07.168Z,42,sie steht jeden Tag um sechs Uhr auf,simple_non_ambiguous,grammatical,grammatical,4841,True,simple,non_ambiguous
PMK8FE1222V3W,pt,A2,,2026-01-10T14:53:55.034Z,2026-01-10T15:04:07.168Z,43,Ich höre dir,simple_ambiguous,ungrammatical,grammatical,3066,False,simple,ambiguous
PMK8FE1222V3W,pt,A2,,2026-01-10T14:53:55.034Z,2026-01-10T15:04:07.168Z,44,Ich schenke dich eine Blume,simple_ambiguous,ungrammatical,ungrammatical,4973,True,simple,ambiguous
PMK8FE1222V3W,pt,A2,,2026-01-10T14:53:55.034Z,2026-01-10T15:04:07.168Z,45,Ich gebe ihm das Buch,simple_non_ambiguous,grammatical,grammatical,4212,True,simple,non_ambiguous
PMK8FE1222V3W,pt,A2,,2026-01-10T14:53:55.034Z,2026-01-10T15:04:07.168Z,46,Ich kann nicht schlafen ein.,simple_ambiguous,ungrammatical,grammatical,4586,False,simple,ambiguous
PMK8FE1222V3W,pt,A2,,2026-01-10T14:53:55.034Z,2026-01-10T15:04:07.168Z,47,"Sie lernt Deutsch, seit sie wohnt in Berlin",complex_ambiguous,ungrammatical,ungrammatical,5723,True,complex,ambiguous
PMK8FE1222V3W,pt,A2,,2026-01-10T14:53:55.034Z,2026-01-10T15:04:07.168Z,48,Ich gebe er das Buch,simple_ambiguous,ungrammatical,grammatical,3092,False,simple,ambiguous
PMK8FE1222V3W,pt,A2,,2026-01-10T14:53:55.034Z,2026-01-10T15:04:07.168Z,49,Er anruft mich jeden Sonntag,simple_ambiguous,ungrammatical,grammatical,4855,False,simple,ambiguous
PMK8FE1222V3W,pt,A2,,2026-01-10T14:53:55.034Z,2026-01-10T15:04:07.168Z,50,"Wir bleiben drinnen, falls es regnet heute",complex_non_ambiguous,ungrammatical,ungrammatical,6957,True,complex,non_ambiguous
PMK8FE1222V3W,pt,A2,,2026-01-10T14:53:55.034Z,2026-01-10T15:04:07.168Z,51,"Er schläft, da er müde ist.",complex_non_ambiguous,grammatical,grammatical,5463,True,complex,non_ambiguous
PMK8FE1222V3W,pt,A2,,2026-01-10T14:53:55.034Z,2026-01-10T15:04:07.168Z,52,Wann ankommst du in Berlin?,simple_ambiguous,ungrammatical,ungrammatical,3095,True,simple,ambiguous
PMK8FE1222V3W,pt,A2,,2026-01-10T14:53:55.034Z,2026-01-10T15:04:07.168Z,53,"Ich rufe dich an, sobald ich habe Zeit",complex_ambiguous,ungrammatical,ungrammatical,4848,True,complex,ambiguous
PMK8FE1222V3W,pt,A2,,2026-01-10T14:53:55.034Z,2026-01-10T15:04:07.168Z,54,Die Großmutter hat die Schokolade gegessen,simple_non_ambiguous,grammatical,ungrammatical,5364,False,simple,non_ambiguous
PMK8FE1222V3W,pt,A2,,2026-01-10T14:53:55.034Z,2026-01-10T15:04:07.168Z,55,"Wir wissen nicht, ob er bei der Prüfung betrogen hat.",complex_non_ambiguous,grammatical,grammatical,6655,True,complex,non_ambiguous
PMK8FE1222V3W,pt,A2,,2026-01-10T14:53:55.034Z,2026-01-10T15:04:07.168Z,56,Mit viel Freude hat die Großmutter die Schokolade gegessen,simple_non_ambiguous,grammatical,grammatical,5062,True,simple,non_ambiguous
PMI1ZNLZ3A5RD,fr,B2,5_to_10_years,2025-11-16T17:27:26.464Z,2025-11-16T17:32:25.200Z,1,Sie zeigt mich den Weg,simple_ambiguous,ungrammatical,grammatical,7476,False,simple,ambiguous
PMI1ZNLZ3A5RD,fr,B2,5_to_10_years,2025-11-16T17:27:26.464Z,2025-11-16T17:32:25.200Z,2,Wann kommst du in Berlin an?,simple_non_ambiguous,grammatical,grammatical,3484,True,simple,non_ambiguous
PMI1ZNLZ3A5RD,fr,B2,5_to_10_years,2025-11-16T17:27:26.464Z,2025-11-16T17:32:25.200Z,3,Ich kann nicht einschlafen,simple_non_ambiguous,grammatical,grammatical,4924,True,simple,non_ambiguous
PMI1ZNLZ3A5RD,fr,B2,5_to_10_years,2025-11-16T17:27:26.464Z,2025-11-16T17:32:25.200Z,5,Der Spielerin gibt das Kind den Ball,simple_ambiguous,grammatical,ungrammatical,8431,False,simple,ambiguous
PMI1ZNLZ3A5RD,fr,B2,5_to_10_years,2025-11-16T17:27:26.464Z,2025-11-16T17:32:25.200Z,6,"Sie lernt Deutsch, seit sie wohnt in Berlin",complex_ambiguous,ungrammatical,ungrammatical,5286,True,complex,ambiguous
PMI1ZNLZ3A5RD,fr,B2,5_to_10_years,2025-11-16T17:27:26.464Z,2025-11-16T17:32:25.200Z,7,Wir geben ihr die Schlüssel,simple_non_ambiguous,grammatical,grammatical,3810,True,simple,non_ambiguous
PMI1ZNLZ3A5RD,fr,B2,5_to_10_years,2025-11-16T17:27:26.464Z,2025-11-16T17:32:25.200Z,8,Ich kann nicht schlafen ein.,simple_ambiguous,ungrammatical,ungrammatical,3359,True,simple,ambiguous
PMI1ZNLZ3A5RD,fr,B2,5_to_10_years,2025-11-16T17:27:26.464Z,2025-11-16T17:32:25.200Z,9,"Er ist müde, weil er hat spät ins Bett gegangen",complex_ambiguous,ungrammatical,ungrammatical,6244,True,complex,ambiguous
PMI1ZNLZ3A5RD,fr,B2,5_to_10_years,2025-11-16T17:27:26.464Z,2025-11-16T17:32:25.200Z,10,Er ruft mich jeden Sonntag an,simple_non_ambiguous,grammatical,grammatical,2802,True,simple,non_ambiguous
PMI1ZNLZ3A5RD,fr,B2,5_to_10_years,2025-11-16T17:27:26.464Z,2025-11-16T17:32:25.200Z,11,Ich gebe ihm das Buch,simple_non_ambiguous,grammatical,grammatical,3519,True,simple,non_ambiguous
PMI1ZNLZ3A5RD,fr,B2,5_to_10_years,2025-11-16T17:27:26.464Z,2025-11-16T17:32:25.200Z,12,Ich höre dir,simple_ambiguous,ungrammatical,grammatical,2111,False,simple,ambiguous
PMI1ZNLZ3A5RD,fr,B2,5_to_10_years,2025-11-16T17:27:26.464Z,2025-11-16T17:32:25.200Z,13,"Ich rufe dich an, sobald ich habe Zeit",complex_ambiguous,ungrammatical,ungrammatical,8689,True,complex,ambiguous
PMI1ZNLZ3A5RD,fr,B2,5_to_10_years,2025-11-16T17:27:26.464Z,2025-11-16T17:32:25.200Z,14,Du räumst dein Zimmer auf,simple_non_ambiguous,grammatical,grammatical,2989,True,simple,non_ambiguous
PMI1ZNLZ3A5RD,fr,B2,5_to_10_years,2025-11-16T17:27:26.464Z,2025-11-16T17:32:25.200Z,15,Er bringt sie die Zeitung,simple_ambiguous,ungrammatical,grammatical,3846,False,simple,ambiguous
PMI1ZNLZ3A5RD,fr,B2,5_to_10_years,2025-11-16T17:27:26.464Z,2025-11-16T17:32:25.200Z,16,Er sieht mir,simple_ambiguous,ungrammatical,grammatical,1564,False,simple,ambiguous
PMI1ZNLZ3A5RD,fr,B2,5_to_10_years,2025-11-16T17:27:26.464Z,2025-11-16T17:32:25.200Z,17,Sie liebt ihn,simple_non_ambiguous,grammatical,grammatical,2645,True,simple,non_ambiguous
PMI1ZNLZ3A5RD,fr,B2,5_to_10_years,2025-11-16T17:27:26.464Z,2025-11-16T17:32:25.200Z,18,Sie zeigt mir den Weg,simple_non_ambiguous,grammatical,grammatical,2658,True,simple,non_ambiguous
PMI1ZNLZ3A5RD,fr,B2,5_to_10_years,2025-11-16T17:27:26.464Z,2025-11-16T17:32:25.200Z,19,"Ich verstehe, dass du mitkommen willst",complex_non_ambiguous,grammatical,ungrammatical,2365,False,complex,non_ambiguous
PMI1ZNLZ3A5RD,fr,B2,5_to_10_years,2025-11-16T17:27:26.464Z,2025-11-16T17:32:25.200Z,20,"Ihr seid eingeladen, wenn Ihr Zeit habt",complex_non_ambiguous,grammatical,grammatical,4968,True,complex,non_ambiguous
PMI1ZNLZ3A5RD,fr,B2,5_to_10_years,2025-11-16T17:27:26.464Z,2025-11-16T17:32:25.200Z,21,Ich gebe er das Buch,simple_ambiguous,ungrammatical,grammatical,2690,False,simple,ambiguous
PMI1ZNLZ3A5RD,fr,B2,5_to_10_years,2025-11-16T17:27:26.464Z,2025-11-16T17:32:25.200Z,22,Im Park spielen die Kinder Fußball,simple_non_ambiguous,grammatical,grammatical,3473,True,simple,non_ambiguous
PMI1ZNLZ3A5RD,fr,B2,5_to_10_years,2025-11-16T17:27:26.464Z,2025-11-16T17:32:25.200Z,23,Mach das Licht an,simple_non_ambiguous,grammatical,grammatical,2852,True,simple,non_ambiguous
PMI1ZNLZ3A5RD,fr,B2,5_to_10_years,2025-11-16T17:27:26.464Z,2025-11-16T17:32:25.200Z,24,Ich höre euch,simple_non_ambiguous,grammatical,grammatical,1693,True,simple,non_ambiguous
PMI1ZNLZ3A5RD,fr,B2,5_to_10_years,2025-11-16T17:27:26.464Z,2025-11-16T17:32:25.200Z,25,"Er trinkt, weil er Durst hat",complex_non_ambiguous,grammatical,grammatical,2347,True,complex,non_ambiguous
PMI1ZNLZ3A5RD,fr,B2,5_to_10_years,2025-11-16T17:27:26.464Z,2025-11-16T17:32:25.200Z,26,"Er schläft, da er müde ist.",complex_non_ambiguous,grammatical,grammatical,4016,True,complex,non_ambiguous
PMI1ZNLZ3A5RD,fr,B2,5_to_10_years,2025-11-16T17:27:26.464Z,2025-11-16T17:32:25.200Z,27,"Ich gehe raus, obwohl das Wetter schlecht ist.",complex_non_ambiguous,grammatical,grammatical,3819,True,complex,non_ambiguous
PMI1ZNLZ3A5RD,fr,B2,5_to_10_years,2025-11-16T17:27:26.464Z,2025-11-16T17:32:25.200Z,28,"Sie kommt nicht, da sie ist sehr krank",complex_ambiguous,ungrammatical,ungrammatical,3751,True,complex,ambiguous
PMI1ZNLZ3A5RD,fr,B2,5_to_10_years,2025-11-16T17:27:26.464Z,2025-11-16T17:32:25.200Z,29,Den Ball jagt der Hund im Garten,simple_ambiguous,grammatical,ungrammatical,3983,False,simple,ambiguous
PMI1ZNLZ3A5RD,fr,B2,5_to_10_years,2025-11-16T17:27:26.464Z,2025-11-16T17:32:25.200Z,30,Sie liebt er,simple_ambiguous,ungrammatical,grammatical,1901,False,simple,ambiguous
PMI1ZNLZ3A5RD,fr,B2,5_to_10_years,2025-11-16T17:27:26.464Z,2025-11-16T17:32:25.200Z,31,"Er bleibt zu Hause, während seine arbeitet Frau",complex_ambiguous,ungrammatical,ungrammatical,4687,True,complex,ambiguous
PMI1ZNLZ3A5RD,fr,B2,5_to_10_years,2025-11-16T17:27:26.464Z,2025-11-16T17:32:25.200Z,32,Sie macht das Fenster auf,simple_non_ambiguous,grammatical,grammatical,1981,True,simple,non_ambiguous
PMI1ZNLZ3A5RD,fr,B2,5_to_10_years,2025-11-16T17:27:26.464Z,2025-11-16T17:32:25.200Z,33,Ich schenke dir eine Blume,simple_non_ambiguous,grammatical,grammatical,3565,True,simple,non_ambiguous
PMI1ZNLZ3A5RD,fr,B2,5_to_10_years,2025-11-16T17:27:26.464Z,2025-11-16T17:32:25.200Z,34,sie steht jeden Tag um sechs Uhr auf,simple_non_ambiguous,grammatical,grammatical,3961,True,simple,non_ambiguous
PMI1ZNLZ3A5RD,fr,B2,5_to_10_years,2025-11-16T17:27:26.464Z,2025-11-16T17:32:25.200Z,36,"Wir bleiben drinnen, falls es regnet heute",complex_non_ambiguous,ungrammatical,ungrammatical,4448,True,complex,non_ambiguous
PMI1ZNLZ3A5RD,fr,B2,5_to_10_years,2025-11-16T17:27:26.464Z,2025-11-16T17:32:25.200Z,37,Mach an das Licht!,simple_ambiguous,ungrammatical,grammatical,1479,False,simple,ambiguous
PMI1ZNLZ3A5RD,fr,B2,5_to_10_years,2025-11-16T17:27:26.464Z,2025-11-16T17:32:25.200Z,38,Sie ankommen morgen,simple_ambiguous,ungrammatical,ungrammatical,4393,True,simple,ambiguous
PMI1ZNLZ3A5RD,fr,B2,5_to_10_years,2025-11-16T17:27:26.464Z,2025-11-16T17:32:25.200Z,39,Sie kommen morgen an,simple_non_ambiguous,grammatical,grammatical,2028,True,simple,non_ambiguous
PMI1ZNLZ3A5RD,fr,B2,5_to_10_years,2025-11-16T17:27:26.464Z,2025-11-16T17:32:25.200Z,40,Ich aufstehe jeden Tag um sieben Uhr,simple_ambiguous,ungrammatical,ungrammatical,2386,True,simple,ambiguous
PMI1ZNLZ3A5RD,fr,B2,5_to_10_years,2025-11-16T17:27:26.464Z,2025-11-16T17:32:25.200Z,41,"Sie lachen, denn sie sind glücklich",complex_non_ambiguous,grammatical,grammatical,2119,True,complex,non_ambiguous
PMI1ZNLZ3A5RD,fr,B2,5_to_10_years,2025-11-16T17:27:26.464Z,2025-11-16T17:32:25.200Z,42,"Wir wissen nicht, ob er bei der Prüfung betrogen hat.",complex_non_ambiguous,grammatical,grammatical,7365,True,complex,non_ambiguous
PMI1ZNLZ3A5RD,fr,B2,5_to_10_years,2025-11-16T17:27:26.464Z,2025-11-16T17:32:25.200Z,43,"Wir fahren in Urlaub, nachdem wir haben gespart",complex_ambiguous,ungrammatical,grammatical,2844,False,complex,ambiguous
PMI1ZNLZ3A5RD,fr,B2,5_to_10_years,2025-11-16T17:27:26.464Z,2025-11-16T17:32:25.200Z,44,du aufräumst dein Zimmer.,simple_ambiguous,ungrammatical,ungrammatical,2330,True,simple,ambiguous
PMI1ZNLZ3A5RD,fr,B2,5_to_10_years,2025-11-16T17:27:26.464Z,2025-11-16T17:32:25.200Z,45,Er bringt ihnen die Zeitung,simple_non_ambiguous,grammatical,grammatical,2812,True,simple,non_ambiguous
PMI1ZNLZ3A5RD,fr,B2,5_to_10_years,2025-11-16T17:27:26.464Z,2025-11-16T17:32:25.200Z,46,Mit viel Freude hat die Großmutter die Schokolade gegessen,simple_non_ambiguous,grammatical,grammatical,4824,True,simple,non_ambiguous
PMI1ZNLZ3A5RD,fr,B2,5_to_10_years,2025-11-16T17:27:26.464Z,2025-11-16T17:32:25.200Z,47,Die Großmutter hat die Schokolade gegessen,simple_non_ambiguous,grammatical,grammatical,2913,True,simple,non_ambiguous
PMI1ZNLZ3A5RD,fr,B2,5_to_10_years,2025-11-16T17:27:26.464Z,2025-11-16T17:32:25.200Z,48,Sie aufmacht das Fenster,simple_ambiguous,ungrammatical,ungrammatical,1924,True,simple,ambiguous
PMI1ZNLZ3A5RD,fr,B2,5_to_10_years,2025-11-16T17:27:26.464Z,2025-11-16T17:32:25.200Z,49,"Er kauft Blumen, bevor er geht nach Hause",complex_ambiguous,ungrammatical,ungrammatical,3751,True,complex,ambiguous
PMI1ZNLZ3A5RD,fr,B2,5_to_10_years,2025-11-16T17:27:26.464Z,2025-11-16T17:32:25.200Z,50,Den Alien erschreckt das Kind,simple_ambiguous,grammatical,grammatical,3715,True,simple,ambiguous
PMI1ZNLZ3A5RD,fr,B2,5_to_10_years,2025-11-16T17:27:26.464Z,2025-11-16T17:32:25.200Z,51,Er sieht mich,simple_non_ambiguous,grammatical,grammatical,2643,True,simple,non_ambiguous
PMI1ZNLZ3A5RD,fr,B2,5_to_10_years,2025-11-16T17:27:26.464Z,2025-11-16T17:32:25.200Z,52,Ich schenke dich eine Blume,simple_ambiguous,ungrammatical,grammatical,2689,False,simple,ambiguous
PMI1ZNLZ3A5RD,fr,B2,5_to_10_years,2025-11-16T17:27:26.464Z,2025-11-16T17:32:25.200Z,53,Langsam fährt das Auto die Straße entlang,simple_non_ambiguous,grammatical,grammatical,5129,True,simple,non_ambiguous
PMI1ZNLZ3A5RD,fr,B2,5_to_10_years,2025-11-16T17:27:26.464Z,2025-11-16T17:32:25.200Z,54,Er anruft mich jeden Sonntag,simple_ambiguous,ungrammatical,ungrammatical,2168,True,simple,ambiguous
PMI1ZNLZ3A5RD,fr,B2,5_to_10_years,2025-11-16T17:27:26.464Z,2025-11-16T17:32:25.200Z,55,Wann ankommst du in Berlin?,simple_ambiguous,ungrammatical,ungrammatical,2042,True,simple,ambiguous
PMI1ZNLZ3A5RD,fr,B2,5_to_10_years,2025-11-16T17:27:26.464Z,2025-11-16T17:32:25.200Z,56,Wir geben sie die Schlüssel,simple_ambiguous,ungrammatical,grammatical,2341,False,simple,ambiguous
PMHVVZURGHOMH,pt,B2,1_to_2_years,2025-11-12T10:58:22.205Z,2025-11-12T11:05:36.214Z,1,Sie ankommen morgen,simple_ambiguous,ungrammatical,ungrammatical,3411,True,simple,ambiguous
PMHVVZURGHOMH,pt,B2,1_to_2_years,2025-11-12T10:58:22.205Z,2025-11-12T11:05:36.214Z,2,Er bringt sie die Zeitung,simple_ambiguous,ungrammatical,grammatical,5748,False,simple,ambiguous
PMHVVZURGHOMH,pt,B2,1_to_2_years,2025-11-12T10:58:22.205Z,2025-11-12T11:05:36.214Z,5,Wir geben ihr die Schlüssel,simple_non_ambiguous,grammatical,ungrammatical,6942,False,simple,non_ambiguous
PMHVVZURGHOMH,pt,B2,1_to_2_years,2025-11-12T10:58:22.205Z,2025-11-12T11:05:36.214Z,9,Sie aufmacht das Fenster,simple_ambiguous,ungrammatical,ungrammatical,2813,True,simple,ambiguous
PMHVVZURGHOMH,pt,B2,1_to_2_years,2025-11-12T10:58:22.205Z,2025-11-12T11:05:36.214Z,10,Die Großmutter hat die Schokolade gegessen,simple_non_ambiguous,grammatical,grammatical,5175,True,simple,non_ambiguous
PMHVVZURGHOMH,pt,B2,1_to_2_years,2025-11-12T10:58:22.205Z,2025-11-12T11:05:36.214Z,11,Den Alien erschreckt das Kind,simple_ambiguous,grammatical,ungrammatical,7544,False,simple,ambiguous
PMHVVZURGHOMH,pt,B2,1_to_2_years,2025-11-12T10:58:22.205Z,2025-11-12T11:05:36.214Z,12,"Er bleibt zu Hause, während seine arbeitet Frau",complex_ambiguous,ungrammatical,ungrammatical,6809,True,complex,ambiguous
PMHVVZURGHOMH,pt,B2,1_to_2_years,2025-11-12T10:58:22.205Z,2025-11-12T11:05:36.214Z,13,Er ruft mich jeden Sonntag an,simple_non_ambiguous,grammatical,grammatical,5538,True,simple,non_ambiguous
PMHVVZURGHOMH,pt,B2,1_to_2_years,2025-11-12T10:58:22.205Z,2025-11-12T11:05:36.214Z,14,Er sieht mich,simple_non_ambiguous,grammatical,grammatical,3436,True,simple,non_ambiguous
PMHVVZURGHOMH,pt,B2,1_to_2_years,2025-11-12T10:58:22.205Z,2025-11-12T11:05:36.214Z,16,"Sie lernt Deutsch, seit sie wohnt in Berlin",complex_ambiguous,ungrammatical,ungrammatical,6154,True,complex,ambiguous
PMHVVZURGHOMH,pt,B2,1_to_2_years,2025-11-12T10:58:22.205Z,2025-11-12T11:05:36.214Z,17,Im Park spielen die Kinder Fußball,simple_non_ambiguous,grammatical,grammatical,3531,True,simple,non_ambiguous
PMHVVZURGHOMH,pt,B2,1_to_2_years,2025-11-12T10:58:22.205Z,2025-11-12T11:05:36.214Z,18,Er sieht mir,simple_ambiguous,ungrammatical,ungrammatical,5630,True,simple,ambiguous
PMHVVZURGHOMH,pt,B2,1_to_2_years,2025-11-12T10:58:22.205Z,2025-11-12T11:05:36.214Z,19,"Er schläft, da er müde ist.",complex_non_ambiguous,grammatical,ungrammatical,8569,False,complex,non_ambiguous
PMHVVZURGHOMH,pt,B2,1_to_2_years,2025-11-12T10:58:22.205Z,2025-11-12T11:05:36.214Z,20,Sie macht das Fenster auf,simple_non_ambiguous,grammatical,grammatical,3187,True,simple,non_ambiguous
PMHVVZURGHOMH,pt,B2,1_to_2_years,2025-11-12T10:58:22.205Z,2025-11-12T11:05:36.214Z,21,"Sie kommt nicht, da sie ist sehr krank",complex_ambiguous,ungrammatical,grammatical,7971,False,complex,ambiguous
PMHVVZURGHOMH,pt,B2,1_to_2_years,2025-11-12T10:58:22.205Z,2025-11-12T11:05:36.214Z,22,Mach an das Licht!,simple_ambiguous,ungrammatical,ungrammatical,3040,True,simple,ambiguous
PMHVVZURGHOMH,pt,B2,1_to_2_years,2025-11-12T10:58:22.205Z,2025-11-12T11:05:36.214Z,23,Wann kommst du in Berlin an?,simple_non_ambiguous,grammatical,grammatical,4688,True,simple,non_ambiguous
PMHVVZURGHOMH,pt,B2,1_to_2_years,2025-11-12T10:58:22.205Z,2025-11-12T11:05:36.214Z,24,Ich höre dir,simple_ambiguous,ungrammatical,grammatical,2966,False,simple,ambiguous
PMHVVZURGHOMH,pt,B2,1_to_2_years,2025-11-12T10:58:22.205Z,2025-11-12T11:05:36.214Z,26,Wann ankommst du in Berlin?,simple_ambiguous,ungrammatical,ungrammatical,7060,True,simple,ambiguous
PMHVVZURGHOMH,pt,B2,1_to_2_years,2025-11-12T10:58:22.205Z,2025-11-12T11:05:36.214Z,28,Wir geben sie die Schlüssel,simple_ambiguous,ungrammatical,grammatical,6294,False,simple,ambiguous
PMHVVZURGHOMH,pt,B2,1_to_2_years,2025-11-12T10:58:22.205Z,2025-11-12T11:05:36.214Z,29,"Wir wissen nicht, ob er bei der Prüfung betrogen hat.",complex_non_ambiguous,grammatical,grammatical,4808,True,complex,non_ambiguous
PMHVVZURGHOMH,pt,B2,1_to_2_years,2025-11-12T10:58:22.205Z,2025-11-12T11:05:36.214Z,30,Ich schenke dir eine Blume,simple_non_ambiguous,grammatical,grammatical,8663,True,simple,non_ambiguous
PMHVVZURGHOMH,pt,B2,1_to_2_years,2025-11-12T10:58:22.205Z,2025-11-12T11:05:36.214Z,31,"Ich rufe dich an, sobald ich habe Zeit",complex_ambiguous,ungrammatical,grammatical,3314,False,complex,ambiguous
PMHVVZURGHOMH,pt,B2,1_to_2_years,2025-11-12T10:58:22.205Z,2025-11-12T11:05:36.214Z,32,"Ich erkläre es, damit er es versteht",complex_non_ambiguous,grammatical,grammatical,8342,True,complex,non_ambiguous
PMHVVZURGHOMH,pt,B2,1_to_2_years,2025-11-12T10:58:22.205Z,2025-11-12T11:05:36.214Z,34,Sie liebt er,simple_ambiguous,ungrammatical,ungrammatical,8109,True,simple,ambiguous
PMHVVZURGHOMH,pt,B2,1_to_2_years,2025-11-12T10:58:22.205Z,2025-11-12T11:05:36.214Z,35,Ich schenke dich eine Blume,simple_ambiguous,ungrammatical,ungrammatical,3024,True,simple,ambiguous
PMHVVZURGHOMH,pt,B2,1_to_2_years,2025-11-12T10:58:22.205Z,2025-11-12T11:05:36.214Z,36,"Wir fahren in Urlaub, nachdem wir haben gespart",complex_ambiguous,ungrammatical,ungrammatical,6431,True,complex,ambiguous
PMHVVZURGHOMH,pt,B2,1_to_2_years,2025-11-12T10:58:22.205Z,2025-11-12T11:05:36.214Z,39,"Er trinkt, weil er Durst hat",complex_non_ambiguous,grammatical,grammatical,5896,True,complex,non_ambiguous
PMHVVZURGHOMH,pt,B2,1_to_2_years,2025-11-12T10:58:22.205Z,2025-11-12T11:05:36.214Z,40,Du räumst dein Zimmer auf,simple_non_ambiguous,grammatical,grammatical,6593,True,simple,non_ambiguous
PMHVVZURGHOMH,pt,B2,1_to_2_years,2025-11-12T10:58:22.205Z,2025-11-12T11:05:36.214Z,41,Den Kater jagt der Hund,simple_ambiguous,grammatical,grammatical,7264,True,simple,ambiguous
PMHVVZURGHOMH,pt,B2,1_to_2_years,2025-11-12T10:58:22.205Z,2025-11-12T11:05:36.214Z,42,Mach das Licht an,simple_non_ambiguous,grammatical,grammatical,2889,True,simple,non_ambiguous
PMHW0W0VRJK3B,pt,C1,2_to_5_years,2025-11-12T13:15:21.592Z,2025-11-12T13:22:19.757Z,1,Ich gebe ihm das Buch,simple_non_ambiguous,grammatical,grammatical,2608,True,simple,non_ambiguous
PMHW0W0VRJK3B,pt,C1,2_to_5_years,2025-11-12T13:15:21.592Z,2025-11-12T13:22:19.757Z,2,Sie zeigt mich den Weg,simple_ambiguous,ungrammatical,ungrammatical,5849,True,simple,ambiguous
PMHW0W0VRJK3B,pt,C1,2_to_5_years,2025-11-12T13:15:21.592Z,2025-11-12T13:22:19.757Z,3,Sie ankommen morgen,simple_ambiguous,ungrammatical,ungrammatical,4158,True,simple,ambiguous
PMHW0W0VRJK3B,pt,C1,2_to_5_years,2025-11-12T13:15:21.592Z,2025-11-12T13:22:19.757Z,5,Er sieht mir,simple_ambiguous,ungrammatical,ungrammatical,4075,True,simple,ambiguous
PMHW0W0VRJK3B,pt,C1,2_to_5_years,2025-11-12T13:15:21.592Z,2025-11-12T13:22:19.757Z,6,Er anruft mich jeden Sonntag,simple_ambiguous,ungrammatical,ungrammatical,2637,True,simple,ambiguous
PMHW0W0VRJK3B,pt,C1,2_to_5_years,2025-11-12T13:15:21.592Z,2025-11-12T13:22:19.757Z,7,Die Großmutter hat die Schokolade gegessen,simple_non_ambiguous,grammatical,grammatical,3741,True,simple,non_ambiguous
PMHW0W0VRJK3B,pt,C1,2_to_5_years,2025-11-12T13:15:21.592Z,2025-11-12T13:22:19.757Z,8,Wir geben sie die Schlüssel,simple_ambiguous,ungrammatical,ungrammatical,3562,True,simple,ambiguous
PMHW0W0VRJK3B,pt,C1,2_to_5_years,2025-11-12T13:15:21.592Z,2025-11-12T13:22:19.757Z,9,Ich schenke dich eine Blume,simple_ambiguous,ungrammatical,ungrammatical,2741,True,simple,ambiguous
PMHW0W0VRJK3B,pt,C1,2_to_5_years,2025-11-12T13:15:21.592Z,2025-11-12T13:22:19.757Z,10,Ich kann nicht einschlafen,simple_non_ambiguous,grammatical,grammatical,3141,True,simple,non_ambiguous
PMHW0W0VRJK3B,pt,C1,2_to_5_years,2025-11-12T13:15:21.592Z,2025-11-12T13:22:19.757Z,11,Er bringt sie die Zeitung,simple_ambiguous,ungrammatical,ungrammatical,4682,True,simple,ambiguous
PMHW0W0VRJK3B,pt,C1,2_to_5_years,2025-11-12T13:15:21.592Z,2025-11-12T13:22:19.757Z,12,Ich aufstehe jeden Tag um sieben Uhr,simple_ambiguous,ungrammatical,ungrammatical,3931,True,simple,ambiguous
PMHW0W0VRJK3B,pt,C1,2_to_5_years,2025-11-12T13:15:21.592Z,2025-11-12T13:22:19.757Z,13,Im Park spielen die Kinder Fußball,simple_non_ambiguous,grammatical,grammatical,3217,True,simple,non_ambiguous
PMHW0W0VRJK3B,pt,C1,2_to_5_years,2025-11-12T13:15:21.592Z,2025-11-12T13:22:19.757Z,14,Langsam fährt das Auto die Straße entlang,simple_non_ambiguous,grammatical,grammatical,6323,True,simple,non_ambiguous
PMHW0W0VRJK3B,pt,C1,2_to_5_years,2025-11-12T13:15:21.592Z,2025-11-12T13:22:19.757Z,15,Du räumst dein Zimmer auf,simple_non_ambiguous,grammatical,grammatical,3373,True,simple,non_ambiguous
PMHW0W0VRJK3B,pt,C1,2_to_5_years,2025-11-12T13:15:21.592Z,2025-11-12T13:22:19.757Z,16,Wann kommst du in Berlin an?,simple_non_ambiguous,grammatical,grammatical,3805,True,simple,non_ambiguous
PMHW0W0VRJK3B,pt,C1,2_to_5_years,2025-11-12T13:15:21.592Z,2025-11-12T13:22:19.757Z,17,"Sie lernt Deutsch, seit sie wohnt in Berlin",complex_ambiguous,ungrammatical,ungrammatical,5164,True,complex,ambiguous
PMHW0W0VRJK3B,pt,C1,2_to_5_years,2025-11-12T13:15:21.592Z,2025-11-12T13:22:19.757Z,18,"Wir wissen nicht, ob er bei der Prüfung betrogen hat.",complex_non_ambiguous,grammatical,grammatical,6210,True,complex,non_ambiguous
PMHW0W0VRJK3B,pt,C1,2_to_5_years,2025-11-12T13:15:21.592Z,2025-11-12T13:22:19.757Z,19,Wir geben ihr die Schlüssel,simple_non_ambiguous,grammatical,grammatical,3140,True,simple,non_ambiguous
PMHW0W0VRJK3B,pt,C1,2_to_5_years,2025-11-12T13:15:21.592Z,2025-11-12T13:22:19.757Z,20,"Ich gehe raus, obwohl das Wetter schlecht ist.",complex_non_ambiguous,grammatical,grammatical,2911,True,complex,non_ambiguous
PMHW0W0VRJK3B,pt,C1,2_to_5_years,2025-11-12T13:15:21.592Z,2025-11-12T13:22:19.757Z,21,Mach das Licht an,simple_non_ambiguous,grammatical,grammatical,1827,True,simple,non_ambiguous
PMHW0W0VRJK3B,pt,C1,2_to_5_years,2025-11-12T13:15:21.592Z,2025-11-12T13:22:19.757Z,23,Ich schenke dir eine Blume,simple_non_ambiguous,grammatical,grammatical,3064,True,simple,non_ambiguous
PMHW0W0VRJK3B,pt,C1,2_to_5_years,2025-11-12T13:15:21.592Z,2025-11-12T13:22:19.757Z,25,"Er ist müde, weil er hat spät ins Bett gegangen",complex_ambiguous,ungrammatical,ungrammatical,3150,True,complex,ambiguous
PMHW0W0VRJK3B,pt,C1,2_to_5_years,2025-11-12T13:15:21.592Z,2025-11-12T13:22:19.757Z,27,"Ich verstehe, dass du mitkommen willst",complex_non_ambiguous,grammatical,grammatical,4105,True,complex,non_ambiguous
PMHW0W0VRJK3B,pt,C1,2_to_5_years,2025-11-12T13:15:21.592Z,2025-11-12T13:22:19.757Z,29,Sie kommen morgen an,simple_non_ambiguous,grammatical,grammatical,2456,True,simple,non_ambiguous
PMHW0W0VRJK3B,pt,C1,2_to_5_years,2025-11-12T13:15:21.592Z,2025-11-12T13:22:19.757Z,30,Sie liebt er,simple_ambiguous,ungrammatical,ungrammatical,1905,True,simple,ambiguous
PMHW0W0VRJK3B,pt,C1,2_to_5_years,2025-11-12T13:15:21.592Z,2025-11-12T13:22:19.757Z,31,Er sieht mich,simple_non_ambiguous,grammatical,grammatical,3008,True,simple,non_ambiguous
PMHW0W0VRJK3B,pt,C1,2_to_5_years,2025-11-12T13:15:21.592Z,2025-11-12T13:22:19.757Z,32,Sie macht das Fenster auf,simple_non_ambiguous,grammatical,grammatical,4258,True,simple,non_ambiguous
PMHW0W0VRJK3B,pt,C1,2_to_5_years,2025-11-12T13:15:21.592Z,2025-11-12T13:22:19.757Z,33,Sie aufmacht das Fenster,simple_ambiguous,ungrammatical,ungrammatical,1481,True,simple,ambiguous
PMHW0W0VRJK3B,pt,C1,2_to_5_years,2025-11-12T13:15:21.592Z,2025-11-12T13:22:19.757Z,34,Mach an das Licht!,simple_ambiguous,ungrammatical,ungrammatical,3669,True,simple,ambiguous
PMHW0W0VRJK3B,pt,C1,2_to_5_years,2025-11-12T13:15:21.592Z,2025-11-12T13:22:19.757Z,35,Er ruft mich jeden Sonntag an,simple_non_ambiguous,grammatical,grammatical,2927,True,simple,non_ambiguous
PMHW0W0VRJK3B,pt,C1,2_to_5_years,2025-11-12T13:15:21.592Z,2025-11-12T13:22:19.757Z,36,"Ich erkläre es, damit er es versteht",complex_non_ambiguous,grammatical,grammatical,6958,True,complex,non_ambiguous
PMHW0W0VRJK3B,pt,C1,2_to_5_years,2025-11-12T13:15:21.592Z,2025-11-12T13:22:19.757Z,37,"Er kauft Blumen, bevor er geht nach Hause",complex_ambiguous,ungrammatical,ungrammatical,4223,True,complex,ambiguous
PMHW0W0VRJK3B,pt,C1,2_to_5_years,2025-11-12T13:15:21.592Z,2025-11-12T13:22:19.757Z,40,"Wir bleiben drinnen, falls es regnet heute",complex_non_ambiguous,ungrammatical,ungrammatical,8257,True,complex,non_ambiguous
PMHW0W0VRJK3B,pt,C1,2_to_5_years,2025-11-12T13:15:21.592Z,2025-11-12T13:22:19.757Z,41,Sie zeigt mir den Weg,simple_non_ambiguous,grammatical,grammatical,2529,True,simple,non_ambiguous
PMHW0W0VRJK3B,pt,C1,2_to_5_years,2025-11-12T13:15:21.592Z,2025-11-12T13:22:19.757Z,42,"Sie kommt nicht, da sie ist sehr krank",complex_ambiguous,ungrammatical,ungrammatical,3527,True,complex,ambiguous
PMHW2219P5NZS,pt,C1,2_to_5_years,2025-11-12T13:48:01.646Z,2025-11-12T13:58:45.092Z,1,Ich höre euch,simple_non_ambiguous,grammatical,grammatical,2705,True,simple,non_ambiguous
PMHW2219P5NZS,pt,C1,2_to_5_years,2025-11-12T13:48:01.646Z,2025-11-12T13:58:45.092Z,2,Ich gebe er das Buch,simple_ambiguous,ungrammatical,ungrammatical,5593,True,simple,ambiguous
PMHW2219P5NZS,pt,C1,2_to_5_years,2025-11-12T13:48:01.646Z,2025-11-12T13:58:45.092Z,4,Ich kann nicht schlafen ein.,simple_ambiguous,ungrammatical,grammatical,6217,False,simple,ambiguous
PMHW2219P5NZS,pt,C1,2_to_5_years,2025-11-12T13:48:01.646Z,2025-11-12T13:58:45.092Z,6,Ich aufstehe jeden Tag um sieben Uhr,simple_ambiguous,ungrammatical,ungrammatical,8046,True,simple,ambiguous
PMHW2219P5NZS,pt,C1,2_to_5_years,2025-11-12T13:48:01.646Z,2025-11-12T13:58:45.092Z,7,Den Kater jagt der Hund,simple_ambiguous,grammatical,grammatical,8200,True,simple,ambiguous
PMHW2219P5NZS,pt,C1,2_to_5_years,2025-11-12T13:48:01.646Z,2025-11-12T13:58:45.092Z,8,Im Park spielen die Kinder Fußball,simple_non_ambiguous,grammatical,grammatical,8697,True,simple,non_ambiguous
PMHW2219P5NZS,pt,C1,2_to_5_years,2025-11-12T13:48:01.646Z,2025-11-12T13:58:45.092Z,10,Den Alien erschreckt das Kind,simple_ambiguous,grammatical,ungrammatical,8117,False,simple,ambiguous
PMHW2219P5NZS,pt,C1,2_to_5_years,2025-11-12T13:48:01.646Z,2025-11-12T13:58:45.092Z,11,Mach das Licht an,simple_non_ambiguous,grammatical,grammatical,3223,True,simple,non_ambiguous
PMHW2219P5NZS,pt,C1,2_to_5_years,2025-11-12T13:48:01.646Z,2025-11-12T13:58:45.092Z,12,"Er kauft Blumen, bevor er geht nach Hause",complex_ambiguous,ungrammatical,grammatical,5442,False,complex,ambiguous
PMHW2219P5NZS,pt,C1,2_to_5_years,2025-11-12T13:48:01.646Z,2025-11-12T13:58:45.092Z,13,Er sieht mich,simple_non_ambiguous,grammatical,grammatical,3691,True,simple,non_ambiguous
PMHW2219P5NZS,pt,C1,2_to_5_years,2025-11-12T13:48:01.646Z,2025-11-12T13:58:45.092Z,14,"Ich erkläre es, damit er es versteht",complex_non_ambiguous,grammatical,grammatical,5377,True,complex,non_ambiguous
PMHW2219P5NZS,pt,C1,2_to_5_years,2025-11-12T13:48:01.646Z,2025-11-12T13:58:45.092Z,15,Mit viel Freude hat die Großmutter die Schokolade gegessen,simple_non_ambiguous,grammatical,grammatical,4992,True,simple,non_ambiguous
PMHW2219P5NZS,pt,C1,2_to_5_years,2025-11-12T13:48:01.646Z,2025-11-12T13:58:45.092Z,16,"Sie kommt nicht, da sie ist sehr krank",complex_ambiguous,ungrammatical,ungrammatical,7482,True,complex,ambiguous
PMHW2219P5NZS,pt,C1,2_to_5_years,2025-11-12T13:48:01.646Z,2025-11-12T13:58:45.092Z,17,Ich kann nicht einschlafen,simple_non_ambiguous,grammatical,grammatical,7498,True,simple,non_ambiguous
PMHW2219P5NZS,pt,C1,2_to_5_years,2025-11-12T13:48:01.646Z,2025-11-12T13:58:45.092Z,18,Sie kommen morgen an,simple_non_ambiguous,grammatical,grammatical,3907,True,simple,non_ambiguous
PMHW2219P5NZS,pt,C1,2_to_5_years,2025-11-12T13:48:01.646Z,2025-11-12T13:58:45.092Z,20,Er sieht mir,simple_ambiguous,ungrammatical,ungrammatical,2118,True,simple,ambiguous
PMHW2219P5NZS,pt,C1,2_to_5_years,2025-11-12T13:48:01.646Z,2025-11-12T13:58:45.092Z,22,Er ruft mich jeden Sonntag an,simple_non_ambiguous,grammatical,grammatical,3873,True,simple,non_ambiguous
PMHW2219P5NZS,pt,C1,2_to_5_years,2025-11-12T13:48:01.646Z,2025-11-12T13:58:45.092Z,24,Sie liebt ihn,simple_non_ambiguous,grammatical,grammatical,2753,True,simple,non_ambiguous
PMHW2219P5NZS,pt,C1,2_to_5_years,2025-11-12T13:48:01.646Z,2025-11-12T13:58:45.092Z,28,Er bringt ihnen die Zeitung,simple_non_ambiguous,grammatical,grammatical,8332,True,simple,non_ambiguous
PMHW2219P5NZS,pt,C1,2_to_5_years,2025-11-12T13:48:01.646Z,2025-11-12T13:58:45.092Z,29,"Wir wissen nicht, ob er bei der Prüfung betrogen hat.",complex_non_ambiguous,grammatical,grammatical,4104,True,complex,non_ambiguous
PMHW2219P5NZS,pt,C1,2_to_5_years,2025-11-12T13:48:01.646Z,2025-11-12T13:58:45.092Z,30,"Er trinkt, weil er Durst hat",complex_non_ambiguous,grammatical,grammatical,2839,True,complex,non_ambiguous
PMHW2219P5NZS,pt,C1,2_to_5_years,2025-11-12T13:48:01.646Z,2025-11-12T13:58:45.092Z,31,Ich schenke dir eine Blume,simple_non_ambiguous,grammatical,grammatical,4625,True,simple,non_ambiguous
PMHW2219P5NZS,pt,C1,2_to_5_years,2025-11-12T13:48:01.646Z,2025-11-12T13:58:45.092Z,34,Du räumst dein Zimmer auf,simple_non_ambiguous,grammatical,grammatical,5158,True,simple,non_ambiguous
PMHW2219P5NZS,pt,C1,2_to_5_years,2025-11-12T13:48:01.646Z,2025-11-12T13:58:45.092Z,35,Wir geben sie die Schlüssel,simple_ambiguous,ungrammatical,grammatical,6896,False,simple,ambiguous
PMHW2219P5NZS,pt,C1,2_to_5_years,2025-11-12T13:48:01.646Z,2025-11-12T13:58:45.092Z,36,"Sie lernt Deutsch, seit sie wohnt in Berlin",complex_ambiguous,ungrammatical,ungrammatical,5761,True,complex,ambiguous
PMHW2219P5NZS,pt,C1,2_to_5_years,2025-11-12T13:48:01.646Z,2025-11-12T13:58:45.092Z,37,Langsam fährt das Auto die Straße entlang,simple_non_ambiguous,grammatical,grammatical,4740,True,simple,non_ambiguous
PMHW2219P5NZS,pt,C1,2_to_5_years,2025-11-12T13:48:01.646Z,2025-11-12T13:58:45.092Z,38,Den Ball jagt der Hund im Garten,simple_ambiguous,grammatical,grammatical,3724,True,simple,ambiguous
PMHW2219P5NZS,pt,C1,2_to_5_years,2025-11-12T13:48:01.646Z,2025-11-12T13:58:45.092Z,40,"Ich gehe raus, obwohl das Wetter schlecht ist.",complex_non_ambiguous,grammatical,grammatical,4306,True,complex,non_ambiguous
PMHW2219P5NZS,pt,C1,2_to_5_years,2025-11-12T13:48:01.646Z,2025-11-12T13:58:45.092Z,41,"Ihr seid eingeladen, wenn Ihr Zeit habt",complex_non_ambiguous,grammatical,grammatical,4608,True,complex,non_ambiguous
PMHW2219P5NZS,pt,C1,2_to_5_years,2025-11-12T13:48:01.646Z,2025-11-12T13:58:45.092Z,42,Ich schenke dich eine Blume,simple_ambiguous,ungrammatical,ungrammatical,2723,True,simple,ambiguous
PMHW7VCSZS7RP,pt,B2,less_than_1_year,2025-11-12T16:30:47.700Z,2025-11-12T16:35:17.534Z,1,Sie liebt er,simple_ambiguous,ungrammatical,ungrammatical,4592,True,simple,ambiguous
PMHW7VCSZS7RP,pt,B2,less_than_1_year,2025-11-12T16:30:47.700Z,2025-11-12T16:35:17.534Z,2,Die Großmutter hat die Schokolade gegessen,simple_non_ambiguous,grammatical,grammatical,4782,True,simple,non_ambiguous
PMHW7VCSZS7RP,pt,B2,less_than_1_year,2025-11-12T16:30:47.700Z,2025-11-12T16:35:17.534Z,3,Du räumst dein Zimmer auf,simple_non_ambiguous,grammatical,grammatical,4500,True,simple,non_ambiguous
PMHW7VCSZS7RP,pt,B2,less_than_1_year,2025-11-12T16:30:47.700Z,2025-11-12T16:35:17.534Z,4,Der Spielerin gibt das Kind den Ball,simple_ambiguous,grammatical,grammatical,5295,True,simple,ambiguous
PMHW7VCSZS7RP,pt,B2,less_than_1_year,2025-11-12T16:30:47.700Z,2025-11-12T16:35:17.534Z,5,"Wir bleiben drinnen, falls es regnet heute",complex_non_ambiguous,ungrammatical,ungrammatical,4781,True,complex,non_ambiguous
PMHW7VCSZS7RP,pt,B2,less_than_1_year,2025-11-12T16:30:47.700Z,2025-11-12T16:35:17.534Z,6,Den Kater jagt der Hund,simple_ambiguous,grammatical,ungrammatical,3515,False,simple,ambiguous
PMHW7VCSZS7RP,pt,B2,less_than_1_year,2025-11-12T16:30:47.700Z,2025-11-12T16:35:17.534Z,7,Ich schenke dir eine Blume,simple_non_ambiguous,grammatical,grammatical,2665,True,simple,non_ambiguous
PMHW7VCSZS7RP,pt,B2,less_than_1_year,2025-11-12T16:30:47.700Z,2025-11-12T16:35:17.534Z,8,Ich gebe er das Buch,simple_ambiguous,ungrammatical,ungrammatical,3031,True,simple,ambiguous
PMHW7VCSZS7RP,pt,B2,less_than_1_year,2025-11-12T16:30:47.700Z,2025-11-12T16:35:17.534Z,9,Wann ankommst du in Berlin?,simple_ambiguous,ungrammatical,ungrammatical,2831,True,simple,ambiguous
PMHW7VCSZS7RP,pt,B2,less_than_1_year,2025-11-12T16:30:47.700Z,2025-11-12T16:35:17.534Z,10,Den Ball jagt der Hund im Garten,simple_ambiguous,grammatical,ungrammatical,3145,False,simple,ambiguous
PMHW7VCSZS7RP,pt,B2,less_than_1_year,2025-11-12T16:30:47.700Z,2025-11-12T16:35:17.534Z,11,Langsam fährt das Auto die Straße entlang,simple_non_ambiguous,grammatical,ungrammatical,5728,False,simple,non_ambiguous
PMHW7VCSZS7RP,pt,B2,less_than_1_year,2025-11-12T16:30:47.700Z,2025-11-12T16:35:17.534Z,12,"Er bleibt zu Hause, während seine arbeitet Frau",complex_ambiguous,ungrammatical,ungrammatical,5088,True,complex,ambiguous
PMHW7VCSZS7RP,pt,B2,less_than_1_year,2025-11-12T16:30:47.700Z,2025-11-12T16:35:17.534Z,13,"Sie kommt nicht, da sie ist sehr krank",complex_ambiguous,ungrammatical,ungrammatical,5131,True,complex,ambiguous
PMHW7VCSZS7RP,pt,B2,less_than_1_year,2025-11-12T16:30:47.700Z,2025-11-12T16:35:17.534Z,14,Er sieht mich,simple_non_ambiguous,grammatical,ungrammatical,5165,False,simple,non_ambiguous
PMHW7VCSZS7RP,pt,B2,less_than_1_year,2025-11-12T16:30:47.700Z,2025-11-12T16:35:17.534Z,15,Mach das Licht an,simple_non_ambiguous,grammatical,grammatical,3949,True,simple,non_ambiguous
PMHW7VCSZS7RP,pt,B2,less_than_1_year,2025-11-12T16:30:47.700Z,2025-11-12T16:35:17.534Z,16,Er bringt ihnen die Zeitung,simple_non_ambiguous,grammatical,grammatical,2580,True,simple,non_ambiguous
PMHW7VCSZS7RP,pt,B2,less_than_1_year,2025-11-12T16:30:47.700Z,2025-11-12T16:35:17.534Z,18,Ich gebe ihm das Buch,simple_non_ambiguous,grammatical,grammatical,1580,True,simple,non_ambiguous
PMHW7VCSZS7RP,pt,B2,less_than_1_year,2025-11-12T16:30:47.700Z,2025-11-12T16:35:17.534Z,19,sie steht jeden Tag um sechs Uhr auf,simple_non_ambiguous,grammatical,grammatical,4699,True,simple,non_ambiguous
PMHW7VCSZS7RP,pt,B2,less_than_1_year,2025-11-12T16:30:47.700Z,2025-11-12T16:35:17.534Z,20,Sie zeigt mich den Weg,simple_ambiguous,ungrammatical,grammatical,1998,False,simple,ambiguous
PMHW7VCSZS7RP,pt,B2,less_than_1_year,2025-11-12T16:30:47.700Z,2025-11-12T16:35:17.534Z,22,Ich höre dir,simple_ambiguous,ungrammatical,grammatical,1263,False,simple,ambiguous
PMHW7VCSZS7RP,pt,B2,less_than_1_year,2025-11-12T16:30:47.700Z,2025-11-12T16:35:17.534Z,23,Er bringt sie die Zeitung,simple_ambiguous,ungrammatical,grammatical,7733,False,simple,ambiguous
PMHW7VCSZS7RP,pt,B2,less_than_1_year,2025-11-12T16:30:47.700Z,2025-11-12T16:35:17.534Z,24,Mit viel Freude hat die Großmutter die Schokolade gegessen,simple_non_ambiguous,grammatical,ungrammatical,7864,False,simple,non_ambiguous
PMHW7VCSZS7RP,pt,B2,less_than_1_year,2025-11-12T16:30:47.700Z,2025-11-12T16:35:17.534Z,25,Im Park spielen die Kinder Fußball,simple_non_ambiguous,grammatical,grammatical,5232,True,simple,non_ambiguous
PMHW7VCSZS7RP,pt,B2,less_than_1_year,2025-11-12T16:30:47.700Z,2025-11-12T16:35:17.534Z,26,"Er ist müde, weil er hat spät ins Bett gegangen",complex_ambiguous,ungrammatical,ungrammatical,3731,True,complex,ambiguous
PMHW7VCSZS7RP,pt,B2,less_than_1_year,2025-11-12T16:30:47.700Z,2025-11-12T16:35:17.534Z,27,"Ich verstehe, dass du mitkommen willst",complex_non_ambiguous,grammatical,grammatical,2782,True,complex,non_ambiguous
PMHW7VCSZS7RP,pt,B2,less_than_1_year,2025-11-12T16:30:47.700Z,2025-11-12T16:35:17.534Z,28,"Sie lernt Deutsch, seit sie wohnt in Berlin",complex_ambiguous,ungrammatical,ungrammatical,3631,True,complex,ambiguous
PMHW7VCSZS7RP,pt,B2,less_than_1_year,2025-11-12T16:30:47.700Z,2025-11-12T16:35:17.534Z,29,Er sieht mir,simple_ambiguous,ungrammatical,grammatical,2048,False,simple,ambiguous
PMHW7VCSZS7RP,pt,B2,less_than_1_year,2025-11-12T16:30:47.700Z,2025-11-12T16:35:17.534Z,30,"Ich rufe dich an, sobald ich habe Zeit",complex_ambiguous,ungrammatical,grammatical,2747,False,complex,ambiguous
PMHW7VCSZS7RP,pt,B2,less_than_1_year,2025-11-12T16:30:47.700Z,2025-11-12T16:35:17.534Z,31,"Ihr seid eingeladen, wenn Ihr Zeit habt",complex_non_ambiguous,grammatical,grammatical,6499,True,complex,non_ambiguous
PMHW7VCSZS7RP,pt,B2,less_than_1_year,2025-11-12T16:30:47.700Z,2025-11-12T16:35:17.534Z,32,Sie ankommen morgen,simple_ambiguous,ungrammatical,ungrammatical,2697,True,simple,ambiguous
PMHW7VCSZS7RP,pt,B2,less_than_1_year,2025-11-12T16:30:47.700Z,2025-11-12T16:35:17.534Z,33,Wir geben sie die Schlüssel,simple_ambiguous,ungrammatical,grammatical,2449,False,simple,ambiguous
PMHW7VCSZS7RP,pt,B2,less_than_1_year,2025-11-12T16:30:47.700Z,2025-11-12T16:35:17.534Z,34,"Er schläft, da er müde ist.",complex_non_ambiguous,grammatical,grammatical,6448,True,complex,non_ambiguous
PMHW7VCSZS7RP,pt,B2,less_than_1_year,2025-11-12T16:30:47.700Z,2025-11-12T16:35:17.534Z,35,Sie aufmacht das Fenster,simple_ambiguous,ungrammatical,ungrammatical,2481,True,simple,ambiguous
PMHW7VCSZS7RP,pt,B2,less_than_1_year,2025-11-12T16:30:47.700Z,2025-11-12T16:35:17.534Z,36,Den Alien erschreckt das Kind,simple_ambiguous,grammatical,ungrammatical,6280,False,simple,ambiguous
PMHW7VCSZS7RP,pt,B2,less_than_1_year,2025-11-12T16:30:47.700Z,2025-11-12T16:35:17.534Z,37,"Er kauft Blumen, bevor er geht nach Hause",complex_ambiguous,ungrammatical,ungrammatical,6648,True,complex,ambiguous
PMHW7VCSZS7RP,pt,B2,less_than_1_year,2025-11-12T16:30:47.700Z,2025-11-12T16:35:17.534Z,38,"Sie lachen, denn sie sind glücklich",complex_non_ambiguous,grammatical,ungrammatical,4045,False,complex,non_ambiguous
PMHW7VCSZS7RP,pt,B2,less_than_1_year,2025-11-12T16:30:47.700Z,2025-11-12T16:35:17.534Z,39,Ich höre euch,simple_non_ambiguous,grammatical,grammatical,1800,True,simple,non_ambiguous
PMHW7VCSZS7RP,pt,B2,less_than_1_year,2025-11-12T16:30:47.700Z,2025-11-12T16:35:17.534Z,40,Sie liebt ihn,simple_non_ambiguous,grammatical,grammatical,1763,True,simple,non_ambiguous
PMHW7VCSZS7RP,pt,B2,less_than_1_year,2025-11-12T16:30:47.700Z,2025-11-12T16:35:17.534Z,41,Sie zeigt mir den Weg,simple_non_ambiguous,grammatical,grammatical,2482,True,simple,non_ambiguous
PMHW7VCSZS7RP,pt,B2,less_than_1_year,2025-11-12T16:30:47.700Z,2025-11-12T16:35:17.534Z,42,Sie kommen morgen an,simple_non_ambiguous,grammatical,grammatical,1748,True,simple,non_ambiguous
PMHWEYWEJ5UCU,fr,B2,5_to_10_years,2025-11-12T19:49:30.379Z,2025-11-12T19:53:35.608Z,1,"Sie kommt nicht, da sie ist sehr krank",complex_ambiguous,ungrammatical,ungrammatical,5592,True,complex,ambiguous
PMHWEYWEJ5UCU,fr,B2,5_to_10_years,2025-11-12T19:49:30.379Z,2025-11-12T19:53:35.608Z,2,Ich aufstehe jeden Tag um sieben Uhr,simple_ambiguous,ungrammatical,grammatical,5268,False,simple,ambiguous
PMHWEYWEJ5UCU,fr,B2,5_to_10_years,2025-11-12T19:49:30.379Z,2025-11-12T19:53:35.608Z,3,Mach das Licht an,simple_non_ambiguous,grammatical,grammatical,2160,True,simple,non_ambiguous
PMHWEYWEJ5UCU,fr,B2,5_to_10_years,2025-11-12T19:49:30.379Z,2025-11-12T19:53:35.608Z,4,"Ich verstehe, dass du mitkommen willst",complex_non_ambiguous,grammatical,grammatical,3423,True,complex,non_ambiguous
PMHWEYWEJ5UCU,fr,B2,5_to_10_years,2025-11-12T19:49:30.379Z,2025-11-12T19:53:35.608Z,5,Er sieht mich,simple_non_ambiguous,grammatical,grammatical,2245,True,simple,non_ambiguous
PMHWEYWEJ5UCU,fr,B2,5_to_10_years,2025-11-12T19:49:30.379Z,2025-11-12T19:53:35.608Z,6,"Ich gehe raus, obwohl das Wetter schlecht ist.",complex_non_ambiguous,grammatical,grammatical,3990,True,complex,non_ambiguous
PMHWEYWEJ5UCU,fr,B2,5_to_10_years,2025-11-12T19:49:30.379Z,2025-11-12T19:53:35.608Z,7,"Er schläft, da er müde ist.",complex_non_ambiguous,grammatical,grammatical,3307,True,complex,non_ambiguous
PMHWEYWEJ5UCU,fr,B2,5_to_10_years,2025-11-12T19:49:30.379Z,2025-11-12T19:53:35.608Z,8,Langsam fährt das Auto die Straße entlang,simple_non_ambiguous,grammatical,grammatical,4164,True,simple,non_ambiguous
PMHWEYWEJ5UCU,fr,B2,5_to_10_years,2025-11-12T19:49:30.379Z,2025-11-12T19:53:35.608Z,9,"Wir wissen nicht, ob er bei der Prüfung betrogen hat.",complex_non_ambiguous,grammatical,grammatical,3769,True,complex,non_ambiguous
PMHWEYWEJ5UCU,fr,B2,5_to_10_years,2025-11-12T19:49:30.379Z,2025-11-12T19:53:35.608Z,10,Mach an das Licht!,simple_ambiguous,ungrammatical,ungrammatical,2178,True,simple,ambiguous
PMHWEYWEJ5UCU,fr,B2,5_to_10_years,2025-11-12T19:49:30.379Z,2025-11-12T19:53:35.608Z,11,Sie liebt ihn,simple_non_ambiguous,grammatical,grammatical,1830,True,simple,non_ambiguous
PMHWEYWEJ5UCU,fr,B2,5_to_10_years,2025-11-12T19:49:30.379Z,2025-11-12T19:53:35.608Z,12,Im Park spielen die Kinder Fußball,simple_non_ambiguous,grammatical,grammatical,2310,True,simple,non_ambiguous
PMHWEYWEJ5UCU,fr,B2,5_to_10_years,2025-11-12T19:49:30.379Z,2025-11-12T19:53:35.608Z,13,Sie zeigt mir den Weg,simple_non_ambiguous,grammatical,grammatical,1805,True,simple,non_ambiguous
PMHWEYWEJ5UCU,fr,B2,5_to_10_years,2025-11-12T19:49:30.379Z,2025-11-12T19:53:35.608Z,14,Ich höre euch,simple_non_ambiguous,grammatical,grammatical,1565,True,simple,non_ambiguous
PMHWEYWEJ5UCU,fr,B2,5_to_10_years,2025-11-12T19:49:30.379Z,2025-11-12T19:53:35.608Z,15,Er bringt ihnen die Zeitung,simple_non_ambiguous,grammatical,grammatical,1689,True,simple,non_ambiguous
PMHWEYWEJ5UCU,fr,B2,5_to_10_years,2025-11-12T19:49:30.379Z,2025-11-12T19:53:35.608Z,16,"Sie lernt Deutsch, seit sie wohnt in Berlin",complex_ambiguous,ungrammatical,ungrammatical,8248,True,complex,ambiguous
PMHWEYWEJ5UCU,fr,B2,5_to_10_years,2025-11-12T19:49:30.379Z,2025-11-12T19:53:35.608Z,17,Sie liebt er,simple_ambiguous,ungrammatical,ungrammatical,2175,True,simple,ambiguous
PMHWEYWEJ5UCU,fr,B2,5_to_10_years,2025-11-12T19:49:30.379Z,2025-11-12T19:53:35.608Z,18,"Wir bleiben drinnen, falls es regnet heute",complex_non_ambiguous,ungrammatical,ungrammatical,3831,True,complex,non_ambiguous
PMHWEYWEJ5UCU,fr,B2,5_to_10_years,2025-11-12T19:49:30.379Z,2025-11-12T19:53:35.608Z,20,"Ich rufe dich an, sobald ich habe Zeit",complex_ambiguous,ungrammatical,ungrammatical,3436,True,complex,ambiguous
PMHWEYWEJ5UCU,fr,B2,5_to_10_years,2025-11-12T19:49:30.379Z,2025-11-12T19:53:35.608Z,21,Ich gebe ihm das Buch,simple_non_ambiguous,grammatical,grammatical,2483,True,simple,non_ambiguous
PMHWEYWEJ5UCU,fr,B2,5_to_10_years,2025-11-12T19:49:30.379Z,2025-11-12T19:53:35.608Z,22,sie steht jeden Tag um sechs Uhr auf,simple_non_ambiguous,grammatical,grammatical,3063,True,simple,non_ambiguous
PMHWEYWEJ5UCU,fr,B2,5_to_10_years,2025-11-12T19:49:30.379Z,2025-11-12T19:53:35.608Z,23,Sie kommen morgen an,simple_non_ambiguous,grammatical,grammatical,1650,True,simple,non_ambiguous
PMHWEYWEJ5UCU,fr,B2,5_to_10_years,2025-11-12T19:49:30.379Z,2025-11-12T19:53:35.608Z,24,Der Spielerin gibt das Kind den Ball,simple_ambiguous,grammatical,grammatical,5230,True,simple,ambiguous
PMHWEYWEJ5UCU,fr,B2,5_to_10_years,2025-11-12T19:49:30.379Z,2025-11-12T19:53:35.608Z,25,"Ich erkläre es, damit er es versteht",complex_non_ambiguous,grammatical,grammatical,3507,True,complex,non_ambiguous
PMHWEYWEJ5UCU,fr,B2,5_to_10_years,2025-11-12T19:49:30.379Z,2025-11-12T19:53:35.608Z,26,"Sie lachen, denn sie sind glücklich",complex_non_ambiguous,grammatical,ungrammatical,8363,False,complex,non_ambiguous
PMHWEYWEJ5UCU,fr,B2,5_to_10_years,2025-11-12T19:49:30.379Z,2025-11-12T19:53:35.608Z,27,Ich schenke dir eine Blume,simple_non_ambiguous,grammatical,grammatical,3433,True,simple,non_ambiguous
PMHWEYWEJ5UCU,fr,B2,5_to_10_years,2025-11-12T19:49:30.379Z,2025-11-12T19:53:35.608Z,28,Wir geben ihr die Schlüssel,simple_non_ambiguous,grammatical,grammatical,1627,True,simple,non_ambiguous
PMHWEYWEJ5UCU,fr,B2,5_to_10_years,2025-11-12T19:49:30.379Z,2025-11-12T19:53:35.608Z,29,Wann ankommst du in Berlin?,simple_ambiguous,ungrammatical,grammatical,6537,False,simple,ambiguous
PMHWEYWEJ5UCU,fr,B2,5_to_10_years,2025-11-12T19:49:30.379Z,2025-11-12T19:53:35.608Z,30,Ich gebe er das Buch,simple_ambiguous,ungrammatical,grammatical,1676,False,simple,ambiguous
PMHWEYWEJ5UCU,fr,B2,5_to_10_years,2025-11-12T19:49:30.379Z,2025-11-12T19:53:35.608Z,31,Mit viel Freude hat die Großmutter die Schokolade gegessen,simple_non_ambiguous,grammatical,grammatical,4075,True,simple,non_ambiguous
PMHWEYWEJ5UCU,fr,B2,5_to_10_years,2025-11-12T19:49:30.379Z,2025-11-12T19:53:35.608Z,32,"Wir fahren in Urlaub, nachdem wir haben gespart",complex_ambiguous,ungrammatical,grammatical,3953,False,complex,ambiguous
PMHWEYWEJ5UCU,fr,B2,5_to_10_years,2025-11-12T19:49:30.379Z,2025-11-12T19:53:35.608Z,33,"Ihr seid eingeladen, wenn Ihr Zeit habt",complex_non_ambiguous,grammatical,grammatical,3585,True,complex,non_ambiguous
PMHWEYWEJ5UCU,fr,B2,5_to_10_years,2025-11-12T19:49:30.379Z,2025-11-12T19:53:35.608Z,34,Er bringt sie die Zeitung,simple_ambiguous,ungrammatical,grammatical,2552,False,simple,ambiguous
PMHWEYWEJ5UCU,fr,B2,5_to_10_years,2025-11-12T19:49:30.379Z,2025-11-12T19:53:35.608Z,35,Sie aufmacht das Fenster,simple_ambiguous,ungrammatical,grammatical,2172,False,simple,ambiguous
PMHWEYWEJ5UCU,fr,B2,5_to_10_years,2025-11-12T19:49:30.379Z,2025-11-12T19:53:35.608Z,36,Wir geben sie die Schlüssel,simple_ambiguous,ungrammatical,ungrammatical,3373,True,simple,ambiguous
PMHWEYWEJ5UCU,fr,B2,5_to_10_years,2025-11-12T19:49:30.379Z,2025-11-12T19:53:35.608Z,37,Er sieht mir,simple_ambiguous,ungrammatical,grammatical,2132,False,simple,ambiguous
PMHWEYWEJ5UCU,fr,B2,5_to_10_years,2025-11-12T19:49:30.379Z,2025-11-12T19:53:35.608Z,38,Wann kommst du in Berlin an?,simple_non_ambiguous,grammatical,grammatical,2056,True,simple,non_ambiguous
PMHWEYWEJ5UCU,fr,B2,5_to_10_years,2025-11-12T19:49:30.379Z,2025-11-12T19:53:35.608Z,39,du aufräumst dein Zimmer.,simple_ambiguous,ungrammatical,ungrammatical,3135,True,simple,ambiguous
PMHWEYWEJ5UCU,fr,B2,5_to_10_years,2025-11-12T19:49:30.379Z,2025-11-12T19:53:35.608Z,40,Du räumst dein Zimmer auf,simple_non_ambiguous,grammatical,grammatical,1830,True,simple,non_ambiguous
PMHWEYWEJ5UCU,fr,B2,5_to_10_years,2025-11-12T19:49:30.379Z,2025-11-12T19:53:35.608Z,41,Die Großmutter hat die Schokolade gegessen,simple_non_ambiguous,grammatical,grammatical,2226,True,simple,non_ambiguous
PMHWEYWEJ5UCU,fr,B2,5_to_10_years,2025-11-12T19:49:30.379Z,2025-11-12T19:53:35.608Z,42,"Er kauft Blumen, bevor er geht nach Hause",complex_ambiguous,ungrammatical,grammatical,4907,False,complex,ambiguous
PMHWLZAXQZLNC,pt,B2,5_to_10_years,2025-11-12T23:05:46.527Z,2025-11-12T23:13:42.913Z,3,Er sieht mir,simple_ambiguous,ungrammatical,grammatical,6129,False,simple,ambiguous
PMHWLZAXQZLNC,pt,B2,5_to_10_years,2025-11-12T23:05:46.527Z,2025-11-12T23:13:42.913Z,5,Ich schenke dich eine Blume,simple_ambiguous,ungrammatical,ungrammatical,5602,True,simple,ambiguous
PMHWLZAXQZLNC,pt,B2,5_to_10_years,2025-11-12T23:05:46.527Z,2025-11-12T23:13:42.913Z,8,Er ruft mich jeden Sonntag an,simple_non_ambiguous,grammatical,grammatical,6224,True,simple,non_ambiguous
PMHWLZAXQZLNC,pt,B2,5_to_10_years,2025-11-12T23:05:46.527Z,2025-11-12T23:13:42.913Z,9,"Ich rufe dich an, sobald ich habe Zeit",complex_ambiguous,ungrammatical,ungrammatical,5566,True,complex,ambiguous
PMHWLZAXQZLNC,pt,B2,5_to_10_years,2025-11-12T23:05:46.527Z,2025-11-12T23:13:42.913Z,10,Er bringt sie die Zeitung,simple_ambiguous,ungrammatical,ungrammatical,8319,True,simple,ambiguous
PMHWLZAXQZLNC,pt,B2,5_to_10_years,2025-11-12T23:05:46.527Z,2025-11-12T23:13:42.913Z,11,Sie liebt er,simple_ambiguous,ungrammatical,ungrammatical,5961,True,simple,ambiguous
PMHWLZAXQZLNC,pt,B2,5_to_10_years,2025-11-12T23:05:46.527Z,2025-11-12T23:13:42.913Z,13,Ich höre dir,simple_ambiguous,ungrammatical,ungrammatical,4157,True,simple,ambiguous
PMHWLZAXQZLNC,pt,B2,5_to_10_years,2025-11-12T23:05:46.527Z,2025-11-12T23:13:42.913Z,15,Wir geben sie die Schlüssel,simple_ambiguous,ungrammatical,ungrammatical,7806,True,simple,ambiguous
PMHWLZAXQZLNC,pt,B2,5_to_10_years,2025-11-12T23:05:46.527Z,2025-11-12T23:13:42.913Z,16,Wann kommst du in Berlin an?,simple_non_ambiguous,grammatical,grammatical,7406,True,simple,non_ambiguous
PMHWLZAXQZLNC,pt,B2,5_to_10_years,2025-11-12T23:05:46.527Z,2025-11-12T23:13:42.913Z,18,"Er kauft Blumen, bevor er geht nach Hause",complex_ambiguous,ungrammatical,ungrammatical,6016,True,complex,ambiguous
PMHWLZAXQZLNC,pt,B2,5_to_10_years,2025-11-12T23:05:46.527Z,2025-11-12T23:13:42.913Z,19,"Ich gehe raus, obwohl das Wetter schlecht ist.",complex_non_ambiguous,grammatical,grammatical,6402,True,complex,non_ambiguous
PMHWLZAXQZLNC,pt,B2,5_to_10_years,2025-11-12T23:05:46.527Z,2025-11-12T23:13:42.913Z,21,Sie macht das Fenster auf,simple_non_ambiguous,grammatical,grammatical,6333,True,simple,non_ambiguous
PMHWLZAXQZLNC,pt,B2,5_to_10_years,2025-11-12T23:05:46.527Z,2025-11-12T23:13:42.913Z,22,Sie ankommen morgen,simple_ambiguous,ungrammatical,ungrammatical,6314,True,simple,ambiguous
PMHWLZAXQZLNC,pt,B2,5_to_10_years,2025-11-12T23:05:46.527Z,2025-11-12T23:13:42.913Z,23,Sie aufmacht das Fenster,simple_ambiguous,ungrammatical,ungrammatical,6701,True,simple,ambiguous
PMHWLZAXQZLNC,pt,B2,5_to_10_years,2025-11-12T23:05:46.527Z,2025-11-12T23:13:42.913Z,27,Du räumst dein Zimmer auf,simple_non_ambiguous,grammatical,grammatical,6511,True,simple,non_ambiguous
PMHWLZAXQZLNC,pt,B2,5_to_10_years,2025-11-12T23:05:46.527Z,2025-11-12T23:13:42.913Z,28,Sie kommen morgen an,simple_non_ambiguous,grammatical,grammatical,4929,True,simple,non_ambiguous
PMHWLZAXQZLNC,pt,B2,5_to_10_years,2025-11-12T23:05:46.527Z,2025-11-12T23:13:42.913Z,30,Sie zeigt mich den Weg,simple_ambiguous,ungrammatical,ungrammatical,3909,True,simple,ambiguous
PMHWLZAXQZLNC,pt,B2,5_to_10_years,2025-11-12T23:05:46.527Z,2025-11-12T23:13:42.913Z,32,"Er trinkt, weil er Durst hat",complex_non_ambiguous,grammatical,grammatical,8195,True,complex,non_ambiguous
PMHWLZAXQZLNC,pt,B2,5_to_10_years,2025-11-12T23:05:46.527Z,2025-11-12T23:13:42.913Z,33,"Sie kommt nicht, da sie ist sehr krank",complex_ambiguous,ungrammatical,ungrammatical,8762,True,complex,ambiguous
PMHWLZAXQZLNC,pt,B2,5_to_10_years,2025-11-12T23:05:46.527Z,2025-11-12T23:13:42.913Z,34,"Er bleibt zu Hause, während seine arbeitet Frau",complex_ambiguous,ungrammatical,ungrammatical,7980,True,complex,ambiguous
PMHWLZAXQZLNC,pt,B2,5_to_10_years,2025-11-12T23:05:46.527Z,2025-11-12T23:13:42.913Z,35,"Er schläft, da er müde ist.",complex_non_ambiguous,grammatical,grammatical,4365,True,complex,non_ambiguous
PMHWLZAXQZLNC,pt,B2,5_to_10_years,2025-11-12T23:05:46.527Z,2025-11-12T23:13:42.913Z,36,Wann ankommst du in Berlin?,simple_ambiguous,ungrammatical,ungrammatical,4349,True,simple,ambiguous
PMHWLZAXQZLNC,pt,B2,5_to_10_years,2025-11-12T23:05:46.527Z,2025-11-12T23:13:42.913Z,38,Mach das Licht an,simple_non_ambiguous,grammatical,grammatical,5440,True,simple,non_ambiguous
PMHWLZAXQZLNC,pt,B2,5_to_10_years,2025-11-12T23:05:46.527Z,2025-11-12T23:13:42.913Z,39,Ich kann nicht schlafen ein.,simple_ambiguous,ungrammatical,ungrammatical,4300,True,simple,ambiguous
PMHWLZAXQZLNC,pt,B2,5_to_10_years,2025-11-12T23:05:46.527Z,2025-11-12T23:13:42.913Z,40,"Er ist müde, weil er hat spät ins Bett gegangen",complex_ambiguous,ungrammatical,ungrammatical,4994,True,complex,ambiguous
PMHWLZAXQZLNC,pt,B2,5_to_10_years,2025-11-12T23:05:46.527Z,2025-11-12T23:13:42.913Z,41,"Wir fahren in Urlaub, nachdem wir haben gespart",complex_ambiguous,ungrammatical,ungrammatical,5397,True,complex,ambiguous
PMHWO94ZS4LXG,pt,A2,less_than_1_year,2025-11-13T00:09:24.616Z,2025-11-13T00:23:04.753Z,2,Du räumst dein Zimmer auf,simple_non_ambiguous,grammatical,grammatical,7998,True,simple,non_ambiguous
PMHWO94ZS4LXG,pt,A2,less_than_1_year,2025-11-13T00:09:24.616Z,2025-11-13T00:23:04.753Z,9,Wann kommst du in Berlin an?,simple_non_ambiguous,grammatical,ungrammatical,7102,False,simple,non_ambiguous
PMHWO94ZS4LXG,pt,A2,less_than_1_year,2025-11-13T00:09:24.616Z,2025-11-13T00:23:04.753Z,16,Den Kater jagt der Hund,simple_ambiguous,grammatical,ungrammatical,6954,False,simple,ambiguous
PMHWO94ZS4LXG,pt,A2,less_than_1_year,2025-11-13T00:09:24.616Z,2025-11-13T00:23:04.753Z,17,Mach an das Licht!,simple_ambiguous,ungrammatical,ungrammatical,5922,True,simple,ambiguous
PMHWO94ZS4LXG,pt,A2,less_than_1_year,2025-11-13T00:09:24.616Z,2025-11-13T00:23:04.753Z,30,"Wir fahren in Urlaub, nachdem wir haben gespart",complex_ambiguous,ungrammatical,grammatical,5156,False,complex,ambiguous
PMHWO94ZS4LXG,pt,A2,less_than_1_year,2025-11-13T00:09:24.616Z,2025-11-13T00:23:04.753Z,33,Er sieht mich,simple_non_ambiguous,grammatical,grammatical,5283,True,simple,non_ambiguous
PMHWO94ZS4LXG,pt,A2,less_than_1_year,2025-11-13T00:09:24.616Z,2025-11-13T00:23:04.753Z,36,Er bringt sie die Zeitung,simple_ambiguous,ungrammatical,grammatical,4475,False,simple,ambiguous
PMHWO94ZS4LXG,pt,A2,less_than_1_year,2025-11-13T00:09:24.616Z,2025-11-13T00:23:04.753Z,40,"Sie lachen, denn sie sind glücklich",complex_non_ambiguous,grammatical,ungrammatical,7388,False,complex,non_ambiguous
PMHWO94ZS4LXG,pt,A2,less_than_1_year,2025-11-13T00:09:24.616Z,2025-11-13T00:23:04.753Z,41,Ich kann nicht schlafen ein.,simple_ambiguous,ungrammatical,ungrammatical,4438,True,simple,ambiguous
PMHWO94ZS4LXG,pt,A2,less_than_1_year,2025-11-13T00:09:24.616Z,2025-11-13T00:23:04.753Z,42,Mach das Licht an,simple_non_ambiguous,grammatical,ungrammatical,7237,False,simple,non_ambiguous
PMHX7IUOFL1RG,fr,B1,5_to_10_years,2025-11-13T09:08:50.511Z,2025-11-13T09:15:00.282Z,1,Der Spielerin gibt das Kind den Ball,simple_ambiguous,grammatical,ungrammatical,7005,False,simple,ambiguous
PMHX7IUOFL1RG,fr,B1,5_to_10_years,2025-11-13T09:08:50.511Z,2025-11-13T09:15:00.282Z,2,"Er ist müde, weil er hat spät ins Bett gegangen",complex_ambiguous,ungrammatical,ungrammatical,5718,True,complex,ambiguous
PMHX7IUOFL1RG,fr,B1,5_to_10_years,2025-11-13T09:08:50.511Z,2025-11-13T09:15:00.282Z,3,sie steht jeden Tag um sechs Uhr auf,simple_non_ambiguous,grammatical,grammatical,7717,True,simple,non_ambiguous
PMHX7IUOFL1RG,fr,B1,5_to_10_years,2025-11-13T09:08:50.511Z,2025-11-13T09:15:00.282Z,4,"Wir fahren in Urlaub, nachdem wir haben gespart",complex_ambiguous,ungrammatical,ungrammatical,4383,True,complex,ambiguous
PMHX7IUOFL1RG,fr,B1,5_to_10_years,2025-11-13T09:08:50.511Z,2025-11-13T09:15:00.282Z,5,Mach das Licht an,simple_non_ambiguous,grammatical,grammatical,3894,True,simple,non_ambiguous
PMHX7IUOFL1RG,fr,B1,5_to_10_years,2025-11-13T09:08:50.511Z,2025-11-13T09:15:00.282Z,6,Sie liebt er,simple_ambiguous,ungrammatical,grammatical,4217,False,simple,ambiguous
PMHX7IUOFL1RG,fr,B1,5_to_10_years,2025-11-13T09:08:50.511Z,2025-11-13T09:15:00.282Z,7,"Wir wissen nicht, ob er bei der Prüfung betrogen hat.",complex_non_ambiguous,grammatical,grammatical,5402,True,complex,non_ambiguous
PMHX7IUOFL1RG,fr,B1,5_to_10_years,2025-11-13T09:08:50.511Z,2025-11-13T09:15:00.282Z,8,Ich kann nicht schlafen ein.,simple_ambiguous,ungrammatical,ungrammatical,5433,True,simple,ambiguous
PMHX7IUOFL1RG,fr,B1,5_to_10_years,2025-11-13T09:08:50.511Z,2025-11-13T09:15:00.282Z,9,Wann ankommst du in Berlin?,simple_ambiguous,ungrammatical,ungrammatical,5286,True,simple,ambiguous
PMHX7IUOFL1RG,fr,B1,5_to_10_years,2025-11-13T09:08:50.511Z,2025-11-13T09:15:00.282Z,10,"Wir bleiben drinnen, falls es regnet heute",complex_non_ambiguous,ungrammatical,ungrammatical,8187,True,complex,non_ambiguous
PMHX7IUOFL1RG,fr,B1,5_to_10_years,2025-11-13T09:08:50.511Z,2025-11-13T09:15:00.282Z,11,"Er bleibt zu Hause, während seine arbeitet Frau",complex_ambiguous,ungrammatical,ungrammatical,5466,True,complex,ambiguous
PMHX7IUOFL1RG,fr,B1,5_to_10_years,2025-11-13T09:08:50.511Z,2025-11-13T09:15:00.282Z,12,"Ihr seid eingeladen, wenn Ihr Zeit habt",complex_non_ambiguous,grammatical,grammatical,7085,True,complex,non_ambiguous
PMHX7IUOFL1RG,fr,B1,5_to_10_years,2025-11-13T09:08:50.511Z,2025-11-13T09:15:00.282Z,14,Sie kommen morgen an,simple_non_ambiguous,grammatical,grammatical,6112,True,simple,non_ambiguous
PMHX7IUOFL1RG,fr,B1,5_to_10_years,2025-11-13T09:08:50.511Z,2025-11-13T09:15:00.282Z,15,Du räumst dein Zimmer auf,simple_non_ambiguous,grammatical,ungrammatical,8366,False,simple,non_ambiguous
PMHX7IUOFL1RG,fr,B1,5_to_10_years,2025-11-13T09:08:50.511Z,2025-11-13T09:15:00.282Z,16,Sie aufmacht das Fenster,simple_ambiguous,ungrammatical,ungrammatical,4403,True,simple,ambiguous
PMHX7IUOFL1RG,fr,B1,5_to_10_years,2025-11-13T09:08:50.511Z,2025-11-13T09:15:00.282Z,17,Ich höre dir,simple_ambiguous,ungrammatical,grammatical,4563,False,simple,ambiguous
PMHX7IUOFL1RG,fr,B1,5_to_10_years,2025-11-13T09:08:50.511Z,2025-11-13T09:15:00.282Z,18,"Sie lernt Deutsch, seit sie wohnt in Berlin",complex_ambiguous,ungrammatical,grammatical,8152,False,complex,ambiguous
PMHX7IUOFL1RG,fr,B1,5_to_10_years,2025-11-13T09:08:50.511Z,2025-11-13T09:15:00.282Z,19,Die Großmutter hat die Schokolade gegessen,simple_non_ambiguous,grammatical,grammatical,4034,True,simple,non_ambiguous
PMHX7IUOFL1RG,fr,B1,5_to_10_years,2025-11-13T09:08:50.511Z,2025-11-13T09:15:00.282Z,20,Den Kater jagt der Hund,simple_ambiguous,grammatical,ungrammatical,5035,False,simple,ambiguous
PMHX7IUOFL1RG,fr,B1,5_to_10_years,2025-11-13T09:08:50.511Z,2025-11-13T09:15:00.282Z,21,Ich schenke dir eine Blume,simple_non_ambiguous,grammatical,grammatical,4662,True,simple,non_ambiguous
PMHX7IUOFL1RG,fr,B1,5_to_10_years,2025-11-13T09:08:50.511Z,2025-11-13T09:15:00.282Z,22,Wir geben sie die Schlüssel,simple_ambiguous,ungrammatical,ungrammatical,8701,True,simple,ambiguous
PMHX7IUOFL1RG,fr,B1,5_to_10_years,2025-11-13T09:08:50.511Z,2025-11-13T09:15:00.282Z,23,Mit viel Freude hat die Großmutter die Schokolade gegessen,simple_non_ambiguous,grammatical,ungrammatical,4511,False,simple,non_ambiguous
PMHX7IUOFL1RG,fr,B1,5_to_10_years,2025-11-13T09:08:50.511Z,2025-11-13T09:15:00.282Z,24,Sie zeigt mir den Weg,simple_non_ambiguous,grammatical,grammatical,3145,True,simple,non_ambiguous
PMHX7IUOFL1RG,fr,B1,5_to_10_years,2025-11-13T09:08:50.511Z,2025-11-13T09:15:00.282Z,25,"Sie lachen, denn sie sind glücklich",complex_non_ambiguous,grammatical,grammatical,7054,True,complex,non_ambiguous
PMHX7IUOFL1RG,fr,B1,5_to_10_years,2025-11-13T09:08:50.511Z,2025-11-13T09:15:00.282Z,26,Sie liebt ihn,simple_non_ambiguous,grammatical,ungrammatical,2402,False,simple,non_ambiguous
PMHX7IUOFL1RG,fr,B1,5_to_10_years,2025-11-13T09:08:50.511Z,2025-11-13T09:15:00.282Z,27,Er anruft mich jeden Sonntag,simple_ambiguous,ungrammatical,ungrammatical,6943,True,simple,ambiguous
PMHX7IUOFL1RG,fr,B1,5_to_10_years,2025-11-13T09:08:50.511Z,2025-11-13T09:15:00.282Z,28,Er ruft mich jeden Sonntag an,simple_non_ambiguous,grammatical,grammatical,2737,True,simple,non_ambiguous
PMHX7IUOFL1RG,fr,B1,5_to_10_years,2025-11-13T09:08:50.511Z,2025-11-13T09:15:00.282Z,29,Wann kommst du in Berlin an?,simple_non_ambiguous,grammatical,grammatical,4330,True,simple,non_ambiguous
PMHX7IUOFL1RG,fr,B1,5_to_10_years,2025-11-13T09:08:50.511Z,2025-11-13T09:15:00.282Z,30,"Er trinkt, weil er Durst hat",complex_non_ambiguous,grammatical,grammatical,5354,True,complex,non_ambiguous
PMHX7IUOFL1RG,fr,B1,5_to_10_years,2025-11-13T09:08:50.511Z,2025-11-13T09:15:00.282Z,31,Ich höre euch,simple_non_ambiguous,grammatical,grammatical,6366,True,simple,non_ambiguous
PMHX7IUOFL1RG,fr,B1,5_to_10_years,2025-11-13T09:08:50.511Z,2025-11-13T09:15:00.282Z,32,Er sieht mir,simple_ambiguous,ungrammatical,grammatical,3249,False,simple,ambiguous
PMHX7IUOFL1RG,fr,B1,5_to_10_years,2025-11-13T09:08:50.511Z,2025-11-13T09:15:00.282Z,33,Ich aufstehe jeden Tag um sieben Uhr,simple_ambiguous,ungrammatical,ungrammatical,2740,True,simple,ambiguous
PMHX7IUOFL1RG,fr,B1,5_to_10_years,2025-11-13T09:08:50.511Z,2025-11-13T09:15:00.282Z,34,Er sieht mich,simple_non_ambiguous,grammatical,ungrammatical,4094,False,simple,non_ambiguous
PMHX7IUOFL1RG,fr,B1,5_to_10_years,2025-11-13T09:08:50.511Z,2025-11-13T09:15:00.282Z,36,Sie macht das Fenster auf,simple_non_ambiguous,grammatical,grammatical,2150,True,simple,non_ambiguous
PMHX7IUOFL1RG,fr,B1,5_to_10_years,2025-11-13T09:08:50.511Z,2025-11-13T09:15:00.282Z,37,Ich kann nicht einschlafen,simple_non_ambiguous,grammatical,grammatical,3518,True,simple,non_ambiguous
PMHX7IUOFL1RG,fr,B1,5_to_10_years,2025-11-13T09:08:50.511Z,2025-11-13T09:15:00.282Z,38,Langsam fährt das Auto die Straße entlang,simple_non_ambiguous,grammatical,grammatical,6336,True,simple,non_ambiguous
PMHX7IUOFL1RG,fr,B1,5_to_10_years,2025-11-13T09:08:50.511Z,2025-11-13T09:15:00.282Z,39,Den Ball jagt der Hund im Garten,simple_ambiguous,grammatical,ungrammatical,4252,False,simple,ambiguous
PMHX7IUOFL1RG,fr,B1,5_to_10_years,2025-11-13T09:08:50.511Z,2025-11-13T09:15:00.282Z,40,"Ich erkläre es, damit er es versteht",complex_non_ambiguous,grammatical,grammatical,4220,True,complex,non_ambiguous
PMHX7IUOFL1RG,fr,B1,5_to_10_years,2025-11-13T09:08:50.511Z,2025-11-13T09:15:00.282Z,41,"Ich rufe dich an, sobald ich habe Zeit",complex_ambiguous,ungrammatical,ungrammatical,5023,True,complex,ambiguous
PMHX7IUOFL1RG,fr,B1,5_to_10_years,2025-11-13T09:08:50.511Z,2025-11-13T09:15:00.282Z,42,Mach an das Licht!,simple_ambiguous,ungrammatical,ungrammatical,6347,True,simple,ambiguous
PMHX7IUOFL1RG,fr,B1,5_to_10_years,2025-11-13T09:08:50.511Z,2025-11-13T09:15:00.282Z,43,du aufräumst dein Zimmer.,simple_ambiguous,ungrammatical,ungrammatical,5329,True,simple,ambiguous
PMHX7IUOFL1RG,fr,B1,5_to_10_years,2025-11-13T09:08:50.511Z,2025-11-13T09:15:00.282Z,44,"Er kauft Blumen, bevor er geht nach Hause",complex_ambiguous,ungrammatical,ungrammatical,5094,True,complex,ambiguous
PMHX7IUOFL1RG,fr,B1,5_to_10_years,2025-11-13T09:08:50.511Z,2025-11-13T09:15:00.282Z,45,"Ich gehe raus, obwohl das Wetter schlecht ist.",complex_non_ambiguous,grammatical,grammatical,5705,True,complex,non_ambiguous
PMHX7IUOFL1RG,fr,B1,5_to_10_years,2025-11-13T09:08:50.511Z,2025-11-13T09:15:00.282Z,46,Ich schenke dich eine Blume,simple_ambiguous,ungrammatical,grammatical,2403,False,simple,ambiguous
PMHX7IUOFL1RG,fr,B1,5_to_10_years,2025-11-13T09:08:50.511Z,2025-11-13T09:15:00.282Z,47,Im Park spielen die Kinder Fußball,simple_non_ambiguous,grammatical,grammatical,3636,True,simple,non_ambiguous
PMHX7IUOFL1RG,fr,B1,5_to_10_years,2025-11-13T09:08:50.511Z,2025-11-13T09:15:00.282Z,48,Ich gebe er das Buch,simple_ambiguous,ungrammatical,ungrammatical,5583,True,simple,ambiguous
PMHX7IUOFL1RG,fr,B1,5_to_10_years,2025-11-13T09:08:50.511Z,2025-11-13T09:15:00.282Z,49,Sie ankommen morgen,simple_ambiguous,ungrammatical,ungrammatical,3417,True,simple,ambiguous
PMHX7IUOFL1RG,fr,B1,5_to_10_years,2025-11-13T09:08:50.511Z,2025-11-13T09:15:00.282Z,50,"Ich verstehe, dass du mitkommen willst",complex_non_ambiguous,grammatical,grammatical,5962,True,complex,non_ambiguous
PMHX7IUOFL1RG,fr,B1,5_to_10_years,2025-11-13T09:08:50.511Z,2025-11-13T09:15:00.282Z,51,Sie zeigt mich den Weg,simple_ambiguous,ungrammatical,ungrammatical,3216,True,simple,ambiguous
PMHX7IUOFL1RG,fr,B1,5_to_10_years,2025-11-13T09:08:50.511Z,2025-11-13T09:15:00.282Z,52,Ich gebe ihm das Buch,simple_non_ambiguous,grammatical,ungrammatical,6951,False,simple,non_ambiguous
PMHX7IUOFL1RG,fr,B1,5_to_10_years,2025-11-13T09:08:50.511Z,2025-11-13T09:15:00.282Z,53,Den Alien erschreckt das Kind,simple_ambiguous,grammatical,ungrammatical,5038,False,simple,ambiguous
PMHX7IUOFL1RG,fr,B1,5_to_10_years,2025-11-13T09:08:50.511Z,2025-11-13T09:15:00.282Z,54,Er bringt sie die Zeitung,simple_ambiguous,ungrammatical,grammatical,5944,False,simple,ambiguous
PMHX7IUOFL1RG,fr,B1,5_to_10_years,2025-11-13T09:08:50.511Z,2025-11-13T09:15:00.282Z,55,Wir geben ihr die Schlüssel,simple_non_ambiguous,grammatical,grammatical,5171,True,simple,non_ambiguous
PMHX7IUOFL1RG,fr,B1,5_to_10_years,2025-11-13T09:08:50.511Z,2025-11-13T09:15:00.282Z,56,Er bringt ihnen die Zeitung,simple_non_ambiguous,grammatical,grammatical,4112,True,simple,non_ambiguous
PMHX7WXW83C26,fr,B2,more_than_10_years,2025-11-13T09:19:47.864Z,2025-11-13T09:25:30.048Z,1,Ich aufstehe jeden Tag um sieben Uhr,simple_ambiguous,ungrammatical,ungrammatical,2853,True,simple,ambiguous
PMHX7WXW83C26,fr,B2,more_than_10_years,2025-11-13T09:19:47.864Z,2025-11-13T09:25:30.048Z,2,Im Park spielen die Kinder Fußball,simple_non_ambiguous,grammatical,grammatical,3468,True,simple,non_ambiguous
PMHX7WXW83C26,fr,B2,more_than_10_years,2025-11-13T09:19:47.864Z,2025-11-13T09:25:30.048Z,3,"Wir wissen nicht, ob er bei der Prüfung betrogen hat.",complex_non_ambiguous,grammatical,grammatical,3356,True,complex,non_ambiguous
PMHX7WXW83C26,fr,B2,more_than_10_years,2025-11-13T09:19:47.864Z,2025-11-13T09:25:30.048Z,4,Ich gebe ihm das Buch,simple_non_ambiguous,grammatical,grammatical,2779,True,simple,non_ambiguous
PMHX7WXW83C26,fr,B2,more_than_10_years,2025-11-13T09:19:47.864Z,2025-11-13T09:25:30.048Z,5,Die Großmutter hat die Schokolade gegessen,simple_non_ambiguous,grammatical,grammatical,2185,True,simple,non_ambiguous
PMHX7WXW83C26,fr,B2,more_than_10_years,2025-11-13T09:19:47.864Z,2025-11-13T09:25:30.048Z,6,Sie zeigt mich den Weg,simple_ambiguous,ungrammatical,grammatical,3329,False,simple,ambiguous
PMHX7WXW83C26,fr,B2,more_than_10_years,2025-11-13T09:19:47.864Z,2025-11-13T09:25:30.048Z,7,Den Alien erschreckt das Kind,simple_ambiguous,grammatical,grammatical,2372,True,simple,ambiguous
PMHX7WXW83C26,fr,B2,more_than_10_years,2025-11-13T09:19:47.864Z,2025-11-13T09:25:30.048Z,8,Mach an das Licht!,simple_ambiguous,ungrammatical,ungrammatical,4372,True,simple,ambiguous
PMHX7WXW83C26,fr,B2,more_than_10_years,2025-11-13T09:19:47.864Z,2025-11-13T09:25:30.048Z,9,"Er kauft Blumen, bevor er geht nach Hause",complex_ambiguous,ungrammatical,ungrammatical,3478,True,complex,ambiguous
PMHX7WXW83C26,fr,B2,more_than_10_years,2025-11-13T09:19:47.864Z,2025-11-13T09:25:30.048Z,10,Mach das Licht an,simple_non_ambiguous,grammatical,grammatical,2262,True,simple,non_ambiguous
PMHX7WXW83C26,fr,B2,more_than_10_years,2025-11-13T09:19:47.864Z,2025-11-13T09:25:30.048Z,11,"Er bleibt zu Hause, während seine arbeitet Frau",complex_ambiguous,ungrammatical,ungrammatical,3624,True,complex,ambiguous
PMHX7WXW83C26,fr,B2,more_than_10_years,2025-11-13T09:19:47.864Z,2025-11-13T09:25:30.048Z,12,Sie macht das Fenster auf,simple_non_ambiguous,grammatical,grammatical,2764,True,simple,non_ambiguous
PMHX7WXW83C26,fr,B2,more_than_10_years,2025-11-13T09:19:47.864Z,2025-11-13T09:25:30.048Z,13,Wann kommst du in Berlin an?,simple_non_ambiguous,grammatical,grammatical,3953,True,simple,non_ambiguous
PMHX7WXW83C26,fr,B2,more_than_10_years,2025-11-13T09:19:47.864Z,2025-11-13T09:25:30.048Z,14,Wir geben ihr die Schlüssel,simple_non_ambiguous,grammatical,grammatical,2778,True,simple,non_ambiguous
PMHX7WXW83C26,fr,B2,more_than_10_years,2025-11-13T09:19:47.864Z,2025-11-13T09:25:30.048Z,15,Wir geben sie die Schlüssel,simple_ambiguous,ungrammatical,ungrammatical,3383,True,simple,ambiguous
PMHX7WXW83C26,fr,B2,more_than_10_years,2025-11-13T09:19:47.864Z,2025-11-13T09:25:30.048Z,16,Er ruft mich jeden Sonntag an,simple_non_ambiguous,grammatical,grammatical,3387,True,simple,non_ambiguous
PMHX7WXW83C26,fr,B2,more_than_10_years,2025-11-13T09:19:47.864Z,2025-11-13T09:25:30.048Z,17,Sie kommen morgen an,simple_non_ambiguous,grammatical,grammatical,2225,True,simple,non_ambiguous
PMHX7WXW83C26,fr,B2,more_than_10_years,2025-11-13T09:19:47.864Z,2025-11-13T09:25:30.048Z,18,Sie ankommen morgen,simple_ambiguous,ungrammatical,ungrammatical,1925,True,simple,ambiguous
PMHX7WXW83C26,fr,B2,more_than_10_years,2025-11-13T09:19:47.864Z,2025-11-13T09:25:30.048Z,19,"Sie lernt Deutsch, seit sie wohnt in Berlin",complex_ambiguous,ungrammatical,ungrammatical,3408,True,complex,ambiguous
PMHX7WXW83C26,fr,B2,more_than_10_years,2025-11-13T09:19:47.864Z,2025-11-13T09:25:30.048Z,20,Er bringt ihnen die Zeitung,simple_non_ambiguous,grammatical,grammatical,2022,True,simple,non_ambiguous
PMHX7WXW83C26,fr,B2,more_than_10_years,2025-11-13T09:19:47.864Z,2025-11-13T09:25:30.048Z,21,Sie aufmacht das Fenster,simple_ambiguous,ungrammatical,ungrammatical,2120,True,simple,ambiguous
PMHX7WXW83C26,fr,B2,more_than_10_years,2025-11-13T09:19:47.864Z,2025-11-13T09:25:30.048Z,22,Ich schenke dir eine Blume,simple_non_ambiguous,grammatical,grammatical,1979,True,simple,non_ambiguous
PMHX7WXW83C26,fr,B2,more_than_10_years,2025-11-13T09:19:47.864Z,2025-11-13T09:25:30.048Z,23,Sie liebt er,simple_ambiguous,ungrammatical,ungrammatical,3074,True,simple,ambiguous
PMHX7WXW83C26,fr,B2,more_than_10_years,2025-11-13T09:19:47.864Z,2025-11-13T09:25:30.048Z,24,"Ich verstehe, dass du mitkommen willst",complex_non_ambiguous,grammatical,grammatical,4241,True,complex,non_ambiguous
PMHX7WXW83C26,fr,B2,more_than_10_years,2025-11-13T09:19:47.864Z,2025-11-13T09:25:30.048Z,26,Langsam fährt das Auto die Straße entlang,simple_non_ambiguous,grammatical,ungrammatical,5994,False,simple,non_ambiguous
PMHX7WXW83C26,fr,B2,more_than_10_years,2025-11-13T09:19:47.864Z,2025-11-13T09:25:30.048Z,27,sie steht jeden Tag um sechs Uhr auf,simple_non_ambiguous,grammatical,grammatical,3744,True,simple,non_ambiguous
PMHX7WXW83C26,fr,B2,more_than_10_years,2025-11-13T09:19:47.864Z,2025-11-13T09:25:30.048Z,28,Den Kater jagt der Hund,simple_ambiguous,grammatical,grammatical,3128,True,simple,ambiguous
PMHX7WXW83C26,fr,B2,more_than_10_years,2025-11-13T09:19:47.864Z,2025-11-13T09:25:30.048Z,29,Mit viel Freude hat die Großmutter die Schokolade gegessen,simple_non_ambiguous,grammatical,grammatical,4638,True,simple,non_ambiguous
PMHX7WXW83C26,fr,B2,more_than_10_years,2025-11-13T09:19:47.864Z,2025-11-13T09:25:30.048Z,30,Er sieht mir,simple_ambiguous,ungrammatical,grammatical,2516,False,simple,ambiguous
PMHX7WXW83C26,fr,B2,more_than_10_years,2025-11-13T09:19:47.864Z,2025-11-13T09:25:30.048Z,31,"Ich gehe raus, obwohl das Wetter schlecht ist.",complex_non_ambiguous,grammatical,grammatical,3496,True,complex,non_ambiguous
PMHX7WXW83C26,fr,B2,more_than_10_years,2025-11-13T09:19:47.864Z,2025-11-13T09:25:30.048Z,33,Der Spielerin gibt das Kind den Ball,simple_ambiguous,grammatical,grammatical,4908,True,simple,ambiguous
PMHX7WXW83C26,fr,B2,more_than_10_years,2025-11-13T09:19:47.864Z,2025-11-13T09:25:30.048Z,34,Er anruft mich jeden Sonntag,simple_ambiguous,ungrammatical,ungrammatical,6453,True,simple,ambiguous
PMHX7WXW83C26,fr,B2,more_than_10_years,2025-11-13T09:19:47.864Z,2025-11-13T09:25:30.048Z,35,Ich gebe er das Buch,simple_ambiguous,ungrammatical,ungrammatical,2710,True,simple,ambiguous
PMHX7WXW83C26,fr,B2,more_than_10_years,2025-11-13T09:19:47.864Z,2025-11-13T09:25:30.048Z,36,Du räumst dein Zimmer auf,simple_non_ambiguous,grammatical,grammatical,4936,True,simple,non_ambiguous
PMHX7WXW83C26,fr,B2,more_than_10_years,2025-11-13T09:19:47.864Z,2025-11-13T09:25:30.048Z,37,"Wir bleiben drinnen, falls es regnet heute",complex_non_ambiguous,ungrammatical,ungrammatical,5599,True,complex,non_ambiguous
PMHX7WXW83C26,fr,B2,more_than_10_years,2025-11-13T09:19:47.864Z,2025-11-13T09:25:30.048Z,38,Wann ankommst du in Berlin?,simple_ambiguous,ungrammatical,ungrammatical,1650,True,simple,ambiguous
PMHX7WXW83C26,fr,B2,more_than_10_years,2025-11-13T09:19:47.864Z,2025-11-13T09:25:30.048Z,40,Sie zeigt mir den Weg,simple_non_ambiguous,grammatical,grammatical,7617,True,simple,non_ambiguous
PMHX7WXW83C26,fr,B2,more_than_10_years,2025-11-13T09:19:47.864Z,2025-11-13T09:25:30.048Z,42,Er bringt sie die Zeitung,simple_ambiguous,ungrammatical,ungrammatical,3162,True,simple,ambiguous
PMHX7WXW83C26,fr,B2,more_than_10_years,2025-11-13T09:19:47.864Z,2025-11-13T09:25:30.048Z,43,Sie liebt ihn,simple_non_ambiguous,grammatical,grammatical,4156,True,simple,non_ambiguous
PMHX7WXW83C26,fr,B2,more_than_10_years,2025-11-13T09:19:47.864Z,2025-11-13T09:25:30.048Z,44,"Sie lachen, denn sie sind glücklich",complex_non_ambiguous,grammatical,ungrammatical,2390,False,complex,non_ambiguous
PMHX7WXW83C26,fr,B2,more_than_10_years,2025-11-13T09:19:47.864Z,2025-11-13T09:25:30.048Z,45,"Er schläft, da er müde ist.",complex_non_ambiguous,grammatical,grammatical,5409,True,complex,non_ambiguous
PMHX7WXW83C26,fr,B2,more_than_10_years,2025-11-13T09:19:47.864Z,2025-11-13T09:25:30.048Z,46,Er sieht mich,simple_non_ambiguous,grammatical,grammatical,3090,True,simple,non_ambiguous
PMHX7WXW83C26,fr,B2,more_than_10_years,2025-11-13T09:19:47.864Z,2025-11-13T09:25:30.048Z,47,"Er trinkt, weil er Durst hat",complex_non_ambiguous,grammatical,grammatical,5866,True,complex,non_ambiguous
PMHX7WXW83C26,fr,B2,more_than_10_years,2025-11-13T09:19:47.864Z,2025-11-13T09:25:30.048Z,48,Ich kann nicht schlafen ein.,simple_ambiguous,ungrammatical,ungrammatical,6822,True,simple,ambiguous
PMHX7WXW83C26,fr,B2,more_than_10_years,2025-11-13T09:19:47.864Z,2025-11-13T09:25:30.048Z,49,Ich höre euch,simple_non_ambiguous,grammatical,grammatical,3811,True,simple,non_ambiguous
PMHX7WXW83C26,fr,B2,more_than_10_years,2025-11-13T09:19:47.864Z,2025-11-13T09:25:30.048Z,50,"Ich rufe dich an, sobald ich habe Zeit",complex_ambiguous,ungrammatical,ungrammatical,2818,True,complex,ambiguous
PMHX7WXW83C26,fr,B2,more_than_10_years,2025-11-13T09:19:47.864Z,2025-11-13T09:25:30.048Z,51,du aufräumst dein Zimmer.,simple_ambiguous,ungrammatical,ungrammatical,5172,True,simple,ambiguous
PMHX7WXW83C26,fr,B2,more_than_10_years,2025-11-13T09:19:47.864Z,2025-11-13T09:25:30.048Z,52,Ich kann nicht einschlafen,simple_non_ambiguous,grammatical,grammatical,2970,True,simple,non_ambiguous
PMHX7WXW83C26,fr,B2,more_than_10_years,2025-11-13T09:19:47.864Z,2025-11-13T09:25:30.048Z,53,"Er ist müde, weil er hat spät ins Bett gegangen",complex_ambiguous,ungrammatical,ungrammatical,5762,True,complex,ambiguous
PMHX7WXW83C26,fr,B2,more_than_10_years,2025-11-13T09:19:47.864Z,2025-11-13T09:25:30.048Z,54,Ich höre dir,simple_ambiguous,ungrammatical,ungrammatical,7901,True,simple,ambiguous
PMHX7WXW83C26,fr,B2,more_than_10_years,2025-11-13T09:19:47.864Z,2025-11-13T09:25:30.048Z,55,"Wir fahren in Urlaub, nachdem wir haben gespart",complex_ambiguous,ungrammatical,ungrammatical,4016,True,complex,ambiguous
PMHX7WXW83C26,fr,B2,more_than_10_years,2025-11-13T09:19:47.864Z,2025-11-13T09:25:30.048Z,56,"Sie kommt nicht, da sie ist sehr krank",complex_ambiguous,ungrammatical,ungrammatical,4091,True,complex,ambiguous
PMHXCO31J379S,fr,B2,5_to_10_years,2025-11-13T11:32:52.711Z,2025-11-13T11:45:58.995Z,2,Sie liebt ihn,simple_non_ambiguous,grammatical,grammatical,3100,True,simple,non_ambiguous
PMHXCO31J379S,fr,B2,5_to_10_years,2025-11-13T11:32:52.711Z,2025-11-13T11:45:58.995Z,4,Sie zeigt mich den Weg,simple_ambiguous,ungrammatical,grammatical,5382,False,simple,ambiguous
PMHXCO31J379S,fr,B2,5_to_10_years,2025-11-13T11:32:52.711Z,2025-11-13T11:45:58.995Z,9,Ich kann nicht schlafen ein.,simple_ambiguous,ungrammatical,grammatical,6932,False,simple,ambiguous
PMHXCO31J379S,fr,B2,5_to_10_years,2025-11-13T11:32:52.711Z,2025-11-13T11:45:58.995Z,12,Wir geben sie die Schlüssel,simple_ambiguous,ungrammatical,grammatical,8179,False,simple,ambiguous
PMHXCO31J379S,fr,B2,5_to_10_years,2025-11-13T11:32:52.711Z,2025-11-13T11:45:58.995Z,13,Wann ankommst du in Berlin?,simple_ambiguous,ungrammatical,ungrammatical,6700,True,simple,ambiguous
PMHXCO31J379S,fr,B2,5_to_10_years,2025-11-13T11:32:52.711Z,2025-11-13T11:45:58.995Z,18,Sie zeigt mir den Weg,simple_non_ambiguous,grammatical,grammatical,7631,True,simple,non_ambiguous
PMHXCO31J379S,fr,B2,5_to_10_years,2025-11-13T11:32:52.711Z,2025-11-13T11:45:58.995Z,19,Ich aufstehe jeden Tag um sieben Uhr,simple_ambiguous,ungrammatical,ungrammatical,7079,True,simple,ambiguous
PMHXCO31J379S,fr,B2,5_to_10_years,2025-11-13T11:32:52.711Z,2025-11-13T11:45:58.995Z,20,"Er trinkt, weil er Durst hat",complex_non_ambiguous,grammatical,grammatical,3799,True,complex,non_ambiguous
PMHXCO31J379S,fr,B2,5_to_10_years,2025-11-13T11:32:52.711Z,2025-11-13T11:45:58.995Z,22,Ich gebe er das Buch,simple_ambiguous,ungrammatical,grammatical,6360,False,simple,ambiguous
PMHXCO31J379S,fr,B2,5_to_10_years,2025-11-13T11:32:52.711Z,2025-11-13T11:45:58.995Z,24,Er bringt ihnen die Zeitung,simple_non_ambiguous,grammatical,grammatical,6582,True,simple,non_ambiguous
PMHXCO31J379S,fr,B2,5_to_10_years,2025-11-13T11:32:52.711Z,2025-11-13T11:45:58.995Z,25,Sie macht das Fenster auf,simple_non_ambiguous,grammatical,grammatical,5088,True,simple,non_ambiguous
PMHXCO31J379S,fr,B2,5_to_10_years,2025-11-13T11:32:52.711Z,2025-11-13T11:45:58.995Z,27,"Er schläft, da er müde ist.",complex_non_ambiguous,grammatical,grammatical,5515,True,complex,non_ambiguous
PMHXCO31J379S,fr,B2,5_to_10_years,2025-11-13T11:32:52.711Z,2025-11-13T11:45:58.995Z,29,"Ich erkläre es, damit er es versteht",complex_non_ambiguous,grammatical,grammatical,7331,True,complex,non_ambiguous
PMHXCO31J379S,fr,B2,5_to_10_years,2025-11-13T11:32:52.711Z,2025-11-13T11:45:58.995Z,31,Die Großmutter hat die Schokolade gegessen,simple_non_ambiguous,grammatical,grammatical,7558,True,simple,non_ambiguous
PMHXCO31J379S,fr,B2,5_to_10_years,2025-11-13T11:32:52.711Z,2025-11-13T11:45:58.995Z,35,Ich schenke dich eine Blume,simple_ambiguous,ungrammatical,grammatical,5485,False,simple,ambiguous
PMHXCO31J379S,fr,B2,5_to_10_years,2025-11-13T11:32:52.711Z,2025-11-13T11:45:58.995Z,36,"Ihr seid eingeladen, wenn Ihr Zeit habt",complex_non_ambiguous,grammatical,grammatical,7215,True,complex,non_ambiguous
PMHXCO31J379S,fr,B2,5_to_10_years,2025-11-13T11:32:52.711Z,2025-11-13T11:45:58.995Z,37,Er sieht mich,simple_non_ambiguous,grammatical,grammatical,4383,True,simple,non_ambiguous
PMHXCO31J379S,fr,B2,5_to_10_years,2025-11-13T11:32:52.711Z,2025-11-13T11:45:58.995Z,38,Er sieht mir,simple_ambiguous,ungrammatical,ungrammatical,2565,True,simple,ambiguous
PMHXCO31J379S,fr,B2,5_to_10_years,2025-11-13T11:32:52.711Z,2025-11-13T11:45:58.995Z,39,Ich höre dir,simple_ambiguous,ungrammatical,grammatical,3967,False,simple,ambiguous
PMHXCO31J379S,fr,B2,5_to_10_years,2025-11-13T11:32:52.711Z,2025-11-13T11:45:58.995Z,42,Er bringt sie die Zeitung,simple_ambiguous,ungrammatical,grammatical,5832,False,simple,ambiguous
PMHXCO31J379S,fr,B2,5_to_10_years,2025-11-13T11:32:52.711Z,2025-11-13T11:45:58.995Z,43,Sie kommen morgen an,simple_non_ambiguous,grammatical,grammatical,2735,True,simple,non_ambiguous
PMHXCO31J379S,fr,B2,5_to_10_years,2025-11-13T11:32:52.711Z,2025-11-13T11:45:58.995Z,44,Ich höre euch,simple_non_ambiguous,grammatical,grammatical,3233,True,simple,non_ambiguous
PMHXCO31J379S,fr,B2,5_to_10_years,2025-11-13T11:32:52.711Z,2025-11-13T11:45:58.995Z,45,Wann kommst du in Berlin an?,simple_non_ambiguous,grammatical,grammatical,4845,True,simple,non_ambiguous
PMHXCO31J379S,fr,B2,5_to_10_years,2025-11-13T11:32:52.711Z,2025-11-13T11:45:58.995Z,47,"Ich gehe raus, obwohl das Wetter schlecht ist.",complex_non_ambiguous,grammatical,grammatical,510,True,complex,non_ambiguous
PMHXCO31J379S,fr,B2,5_to_10_years,2025-11-13T11:32:52.711Z,2025-11-13T11:45:58.995Z,49,Wir geben ihr die Schlüssel,simple_non_ambiguous,grammatical,grammatical,6664,True,simple,non_ambiguous
PMHXCO31J379S,fr,B2,5_to_10_years,2025-11-13T11:32:52.711Z,2025-11-13T11:45:58.995Z,50,Mach das Licht an,simple_non_ambiguous,grammatical,grammatical,4438,True,simple,non_ambiguous
PMHXCO31J379S,fr,B2,5_to_10_years,2025-11-13T11:32:52.711Z,2025-11-13T11:45:58.995Z,51,"Ich verstehe, dass du mitkommen willst",complex_non_ambiguous,grammatical,grammatical,8370,True,complex,non_ambiguous
PMHXCO31J379S,fr,B2,5_to_10_years,2025-11-13T11:32:52.711Z,2025-11-13T11:45:58.995Z,53,"Sie lachen, denn sie sind glücklich",complex_non_ambiguous,grammatical,grammatical,4147,True,complex,non_ambiguous
PMHXCO31J379S,fr,B2,5_to_10_years,2025-11-13T11:32:52.711Z,2025-11-13T11:45:58.995Z,55,Du räumst dein Zimmer auf,simple_non_ambiguous,grammatical,grammatical,2317,True,simple,non_ambiguous
PMHXCO31J379S,fr,B2,5_to_10_years,2025-11-13T11:32:52.711Z,2025-11-13T11:45:58.995Z,56,Sie aufmacht das Fenster,simple_ambiguous,ungrammatical,ungrammatical,3204,True,simple,ambiguous
PMHXD1WJ2IRZ6,fr,C2,more_than_10_years,2025-11-13T11:43:37.454Z,2025-11-13T11:49:33.351Z,1,"Ich rufe dich an, sobald ich habe Zeit",complex_ambiguous,ungrammatical,ungrammatical,6917,True,complex,ambiguous
PMHXD1WJ2IRZ6,fr,C2,more_than_10_years,2025-11-13T11:43:37.454Z,2025-11-13T11:49:33.351Z,2,Sie liebt ihn,simple_non_ambiguous,grammatical,grammatical,2784,True,simple,non_ambiguous
PMHXD1WJ2IRZ6,fr,C2,more_than_10_years,2025-11-13T11:43:37.454Z,2025-11-13T11:49:33.351Z,3,Ich gebe er das Buch,simple_ambiguous,ungrammatical,ungrammatical,2634,True,simple,ambiguous
PMHXD1WJ2IRZ6,fr,C2,more_than_10_years,2025-11-13T11:43:37.454Z,2025-11-13T11:49:33.351Z,4,"Wir wissen nicht, ob er bei der Prüfung betrogen hat.",complex_non_ambiguous,grammatical,grammatical,5751,True,complex,non_ambiguous
PMHXD1WJ2IRZ6,fr,C2,more_than_10_years,2025-11-13T11:43:37.454Z,2025-11-13T11:49:33.351Z,5,Wir geben sie die Schlüssel,simple_ambiguous,ungrammatical,ungrammatical,2728,True,simple,ambiguous
PMHXD1WJ2IRZ6,fr,C2,more_than_10_years,2025-11-13T11:43:37.454Z,2025-11-13T11:49:33.351Z,7,Mit viel Freude hat die Großmutter die Schokolade gegessen,simple_non_ambiguous,grammatical,grammatical,4786,True,simple,non_ambiguous
PMHXD1WJ2IRZ6,fr,C2,more_than_10_years,2025-11-13T11:43:37.454Z,2025-11-13T11:49:33.351Z,8,Du räumst dein Zimmer auf,simple_non_ambiguous,grammatical,grammatical,5903,True,simple,non_ambiguous
PMHXD1WJ2IRZ6,fr,C2,more_than_10_years,2025-11-13T11:43:37.454Z,2025-11-13T11:49:33.351Z,9,Der Spielerin gibt das Kind den Ball,simple_ambiguous,grammatical,ungrammatical,5419,False,simple,ambiguous
PMHXD1WJ2IRZ6,fr,C2,more_than_10_years,2025-11-13T11:43:37.454Z,2025-11-13T11:49:33.351Z,10,Den Ball jagt der Hund im Garten,simple_ambiguous,grammatical,ungrammatical,5067,False,simple,ambiguous
