[
  {
    "participant_id": "PMK8FE11WX5I4",
    "language_group": "pt",
    "german_level": "A2",
    "learning_duration": NaN,
    "start_time": "2026-01-10T14:53:55.028Z",
    "end_time": "2026-01-10T15:04:36.268Z",
    "trial": 1,
    "sentence": "Er bringt sie die Zeitung",
    "condition": "simple_ambiguous",
    "expected": "ungrammatical",
    "response": "ungrammatical",
    "response_time": 7240,
    "correct": true
  },
  {
    "participant_id": "PMK8FE11WX5I4",
    "language_group": "pt",
    "german_level": "A2",
    "learning_duration": NaN,
    "start_time": "2026-01-10T14:53:55.028Z",
    "end_time": "2026-01-10T15:04:36.268Z",
    "trial": 2,
    "sentence": "Sie lachen, denn sie sind glücklich",
    "condition": "complex_non_ambiguous",
    "expected": "grammatical",
    "response": "grammatical",
    "response_time": 7697,
    "correct": true
  },
  {
    "participant_id": "PMK8FE11WX5I4",
    "language_group": "pt",
    "german_level": "A2",
    "learning_duration": NaN,
    "start_time": "2026-01-10T14:53:55.028Z",
    "end_time": "2026-01-10T15:04:36.268Z",
    "trial": 3,
    "sentence": "Er ruft mich jeden Sonntag an",
    "condition": "simple_non_ambiguous",
    "expected": "grammatical",
    "response": "grammatical",
    "response_time": 7637,
    "correct": true
  },
  {
    "participant_id": "PMK8FE11WX5I4",
    "language_group": "pt",
    "german_level": "A2",
    "learning_duration": NaN,
    "start_time": "2026-01-10T14:53:55.028Z",
    "end_time": "2026-01-10T15:04:36.268Z",
    "trial": 4,
    "sentence": "Mit viel Freude hat die Großmutter die Schokolade gegessen",
    "condition": "simple_non_ambiguous",
    "expected": "grammatical",
    "response": "grammatical",
    "response_time": 5818,
    "correct": true
  },
  {
    "participant_id": "PMK8FE11WX5I4",
    "language_group": "pt",
    "german_level": "A2",
    "learning_duration": NaN,
    "start_time": "2026-01-10T14:53:55.028Z",
    "end_time": "2026-01-10T15:04:36.268Z",
    "trial": 5,
    "sentence": "Langsam fährt das Auto die Straße entlang",
    "condition": "simple_non_ambiguous",
    "expected": "grammatical",
    "response": "grammatical",
    "response_time": 7382,
    "correct": true
  },
  {
    "participant_id": "PMK8FE11WX5I4",
    "language_group": "pt",
    "german_level": "A2",
    "learning_duration": NaN,
    "start_time": "2026-01-10T14:53:55.028Z",
    "end_time": "2026-01-10T15:04:36.268Z",
    "trial": 6,
    "sentence": "Sie liebt ihn",
    "condition": "simple_non_ambiguous",
    "expected": "grammatical",
    "response": "ungrammatical",
    "response_time": 6469,
    "correct": false
  },
  {
    "participant_id": "PMK8FE11WX5I4",
    "language_group": "pt",
    "german_level": "A2",
    "learning_duration": NaN,
    "start_time": "2026-01-10T14:53:55.028Z",
    "end_time": "2026-01-10T15:04:36.268Z",
    "trial": 7,
    "sentence": "Den Alien erschreckt das Kind",
    "condition": "simple_ambiguous",
    "expected": "grammatical",
    "response": "ungrammatical",
    "response_time": 6853,
    "correct": false
  },
  {
    "participant_id": "PMK8FE11WX5I4",
    "language_group": "pt",
    "german_level": "A2",
    "learning_duration": NaN,
    "start_time": "2026-01-10T14:53:55.028Z",
    "end_time": "2026-01-10T15:04:36.268Z",
    "trial": 8,
    "sentence": "Ich aufstehe jeden Tag um sieben Uhr",
    "condition": "simple_ambiguous",
    "expected": "ungrammatical",
    "response": "grammatical",
    "response_time": 6036,
    "correct": false
  },
  {
    "participant_id": "PMK8FE11WX5I4",
    "language_group": "pt",
    "german_level": "A2",
    "learning_duration": NaN,
    "start_time": "2026-01-10T14:53:55.028Z",
    "end_time": "2026-01-10T15:04:36.268Z",
    "trial": 9,
    "sentence": "Ich kann nicht einschlafen",
    "condition": "simple_non_ambiguous",
    "expected": "grammatical",
    "response": "ungrammatical",
    "response_time": 5620,
    "correct": false
  },
  {
    "participant_id": "PMK8FE11WX5I4",
    "language_group": "pt",
    "german_level": "A2",
    "learning_duration": NaN,
    "start_time": "2026-01-10T14:53:55.028Z",
    "end_time": "2026-01-10T15:04:36.268Z",
    "trial": 10,
    "sentence": "Sie liebt er",
    "condition": "simple_ambiguous",
    "expected": "ungrammatical",
    "response": "ungrammatical",
    "response_time": 6103,
    "correct": true
  },
  {
    "participant_id": "PMK8FE11WX5I4",
    "language_group": "pt",
    "german_level": "A2",
    "learning_duration": NaN,
    "start_time": "2026-01-10T14:53:55.028Z",
    "end_time": "2026-01-10T15:04:36.268Z",
    "trial": 11,
    "sentence": "Sie kommt nicht, da sie ist sehr krank",
    "condition": "complex_ambiguous",
    "expected": "ungrammatical",
    "response": "ungrammatical",
    "response_time": 3009,
    "correct": true
  },
  {
    "participant_id": "PMK8FE11WX5I4",
    "language_group": "pt",
    "german_level": "A2",
    "learning_duration": NaN,
    "start_time": "2026-01-10T14:53:55.028Z",
    "end_time": "2026-01-10T15:04:36.268Z",
    "trial": 12,
    "sentence": "Du räumst dein Zimmer auf",
    "condition": "simple_non_ambiguous",
    "expected": "grammatical",
    "response": "grammatical",
    "response_time": 5755,
    "correct": true
  },
  {
    "participant_id": "PMK8FE11WX5I4",
    "language_group": "pt",
    "german_level": "A2",
    "learning_duration": NaN,
    "start_time": "2026-01-10T14:53:55.028Z",
    "end_time": "2026-01-10T15:04:36.268Z",
    "trial": 13,
    "sentence": "Sie aufmacht das Fenster",
    "condition": "simple_ambiguous",
    "expected": "ungrammatical",
    "response": "ungrammatical",
    "response_time": 5810,
    "correct": true
  },
  {
    "participant_id": "PMK8FE11WX5I4",
    "language_group": "pt",
    "german_level": "A2",
    "learning_duration": NaN,
    "start_time": "2026-01-10T14:53:55.028Z",
    "end_time": "2026-01-10T15:04:36.268Z",
    "trial": 14,
    "sentence": "Den Kater jagt der Hund",
    "condition": "simple_ambiguous",
    "expected": "grammatical",
    "response": "ungrammatical",
    "response_time": 7416,
    "correct": false
  },
  {
    "participant_id": "PMK8FE11WX5I4",
    "language_group": "pt",
    "german_level": "A2",
    "learning_duration": NaN,
    "start_time": "2026-01-10T14:53:55.028Z",
    "end_time": "2026-01-10T15:04:36.268Z",
    "trial": 15,
    "sentence": "Ich höre dir",
    "condition": "simple_ambiguous",
    "expected": "ungrammatical",
    "response": "grammatical",
    "response_time": 5987,
    "correct": false
  },
  {
    "participant_id": "PMK8FE11WX5I4",
    "language_group": "pt",
    "german_level": "A2",
    "learning_duration": NaN,
    "start_time": "2026-01-10T14:53:55.028Z",
    "end_time": "2026-01-10T15:04:36.268Z",
    "trial": 16,
    "sentence": "Sie zeigt mich den Weg",
    "condition": "simple_ambiguous",
    "expected": "ungrammatical",
    "response": "grammatical",
    "response_time": 5732,
    "correct": false
  },
  {
    "participant_id": "PMK8FE11WX5I4",
    "language_group": "pt",
    "german_level": "A2",
    "learning_duration": NaN,
    "start_time": "2026-01-10T14:53:55.028Z",
    "end_time": "2026-01-10T15:04:36.268Z",
    "trial": 17,
    "sentence": "Mach das Licht an",
    "condition": "simple_non_ambiguous",
    "expected": "grammatical",
    "response": "grammatical",
    "response_time": 5621,
    "correct": true
  },
  {
    "participant_id": "PMK8FE11WX5I4",
    "language_group": "pt",
    "german_level": "A2",
    "learning_duration": NaN,
    "start_time": "2026-01-10T14:53:55.028Z",
    "end_time": "2026-01-10T15:04:36.268Z",
    "trial": 18,
    "sentence": "Wir geben ihr die Schlüssel",
    "condition": "simple_non_ambiguous",
    "expected": "grammatical",
    "response": "ungrammatical",
    "response_time": 6642,
    "correct": false
  },
  {
    "participant_id": "PMK8FE11WX5I4",
    "language_group": "pt",
    "german_level": "A2",
    "learning_duration": NaN,
    "start_time": "2026-01-10T14:53:55.028Z",
    "end_time": "2026-01-10T15:04:36.268Z",
    "trial": 19,
    "sentence": "Ich gebe ihm das Buch",
    "condition": "simple_non_ambiguous",
    "expected": "grammatical",
    "response": "ungrammatical",
    "response_time": 6058,
    "correct": false
  },
  {
    "participant_id": "PMK8FE11WX5I4",
    "language_group": "pt",
    "german_level": "A2",
    "learning_duration": NaN,
    "start_time": "2026-01-10T14:53:55.028Z",
    "end_time": "2026-01-10T15:04:36.268Z",
    "trial": 20,
    "sentence": "Wann kommst du in Berlin an?",
    "condition": "simple_non_ambiguous",
    "expected": "grammatical",
    "response": "grammatical",
    "response_time": 6049,
    "correct": true
  },
  {
    "participant_id": "PMK8FE11WX5I4",
    "language_group": "pt",
    "german_level": "A2",
    "learning_duration": NaN,
    "start_time": "2026-01-10T14:53:55.028Z",
    "end_time": "2026-01-10T15:04:36.268Z",
    "trial": 21,
    "sentence": "sie steht jeden Tag um sechs Uhr auf",
    "condition": "simple_non_ambiguous",
    "expected": "grammatical",
    "response": "grammatical",
    "response_time": 5686,
    "correct": true
  },
  {
    "participant_id": "PMK8FE11WX5I4",
    "language_group": "pt",
    "german_level": "A2",
    "learning_duration": NaN,
    "start_time": "2026-01-10T14:53:55.028Z",
    "end_time": "2026-01-10T15:04:36.268Z",
    "trial": 22,
    "sentence": "Ihr seid eingeladen, wenn Ihr Zeit habt",
    "condition": "complex_non_ambiguous",
    "expected": "grammatical",
    "response": "grammatical",
    "response_time": 7168,
    "correct": true
  },
  {
    "participant_id": "PMK8FE11WX5I4",
    "language_group": "pt",
    "german_level": "A2",
    "learning_duration": NaN,
    "start_time": "2026-01-10T14:53:55.028Z",
    "end_time": "2026-01-10T15:04:36.268Z",
    "trial": 23,
    "sentence": "Er ist müde, weil er hat spät ins Bett gegangen",
    "condition": "complex_ambiguous",
    "expected": "ungrammatical",
    "response": "ungrammatical",
    "response_time": 3873,
    "correct": true
  },
  {
    "participant_id": "PMK8FE11WX5I4",
    "language_group": "pt",
    "german_level": "A2",
    "learning_duration": NaN,
    "start_time": "2026-01-10T14:53:55.028Z",
    "end_time": "2026-01-10T15:04:36.268Z",
    "trial": 24,
    "sentence": "Ich erkläre es, damit er es versteht",
    "condition": "complex_non_ambiguous",
    "expected": "grammatical",
    "response": "grammatical",
    "response_time": 6615,
    "correct": true
  },
  {
    "participant_id": "PMK8FE11WX5I4",
    "language_group": "pt",
    "german_level": "A2",
    "learning_duration": NaN,
    "start_time": "2026-01-10T14:53:55.028Z",
    "end_time": "2026-01-10T15:04:36.268Z",
    "trial": 25,
    "sentence": "Sie zeigt mir den Weg",
    "condition": "simple_non_ambiguous",
    "expected": "grammatical",
    "response": "ungrammatical",
    "response_time": 5029,
    "correct": false
  },
  {
    "participant_id": "PMK8FE11WX5I4",
    "language_group": "pt",
    "german_level": "A2",
    "learning_duration": NaN,
    "start_time": "2026-01-10T14:53:55.028Z",
    "end_time": "2026-01-10T15:04:36.268Z",
    "trial": 26,
    "sentence": "Sie macht das Fenster auf",
    "condition": "simple_non_ambiguous",
    "expected": "grammatical",
    "response": "ungrammatical",
    "response_time": 5392,
    "correct": false
  },
  {
    "participant_id": "PMK8FE11WX5I4",
    "language_group": "pt",
    "german_level": "A2",
    "learning_duration": NaN,
    "start_time": "2026-01-10T14:53:55.028Z",
    "end_time": "2026-01-10T15:04:36.268Z",
    "trial": 27,
    "sentence": "Wir wissen nicht, ob er bei der Prüfung betrogen hat.",
    "condition": "complex_non_ambiguous",
    "expected": "grammatical",
    "response": "grammatical",
    "response_time": 5596,
    "correct": true
  },
  {
    "participant_id": "PMK8FE11WX5I4",
    "language_group": "pt",
    "german_level": "A2",
    "learning_duration": NaN,
    "start_time": "2026-01-10T14:53:55.028Z",
    "end_time": "2026-01-10T15:04:36.268Z",
    "trial": 28,
    "sentence": "Mach an das Licht!",
    "condition": "simple_ambiguous",
    "expected": "ungrammatical",
    "response": "grammatical",
    "response_time": 5684,
    "correct": false
  },
  {
    "participant_id": "PMK8FE11WX5I4",
    "language_group": "pt",
    "german_level": "A2",
    "learning_duration": NaN,
    "start_time": "2026-01-10T14:53:55.028Z",
    "end_time": "2026-01-10T15:04:36.268Z",
    "trial": 29,
    "sentence": "Er trinkt, weil er Durst hat",
    "condition": "complex_non_ambiguous",
    "expected": "grammatical",
    "response": "grammatical",
    "response_time": 5572,
    "correct": true
  },
  {
    "participant_id": "PMK8FE11WX5I4",
    "language_group": "pt",
    "german_level": "A2",
    "learning_duration": NaN,
    "start_time": "2026-01-10T14:53:55.028Z",
    "end_time": "2026-01-10T15:04:36.268Z",
    "trial": 30,
    "sentence": "Er anruft mich jeden Sonntag",
    "condition": "simple_ambiguous",
    "expected": "ungrammatical",
    "response": "ungrammatical",
    "response_time": 4654,
    "correct": true
  },
  {
    "participant_id": "PMK8FE11WX5I4",
    "language_group": "pt",
    "german_level": "A2",
    "learning_duration": NaN,
    "start_time": "2026-01-10T14:53:55.028Z",
    "end_time": "2026-01-10T15:04:36.268Z",
    "trial": 31,
    "sentence": "Ich höre euch",
    "condition": "simple_non_ambiguous",
    "expected": "grammatical",
    "response": "grammatical",
    "response_time": 5125,
    "correct": true
  },
  {
    "participant_id": "PMK8FE11WX5I4",
    "language_group": "pt",
    "german_level": "A2",
    "learning_duration": NaN,
    "start_time": "2026-01-10T14:53:55.028Z",
    "end_time": "2026-01-10T15:04:36.268Z",
    "trial": 32,
    "sentence": "Ich kann nicht schlafen ein.",
    "condition": "simple_ambiguous",
    "expected": "ungrammatical",
    "response": "ungrammatical",
    "response_time": 6924,
    "correct": true
  },
  {
    "participant_id": "PMK8FE11WX5I4",
    "language_group": "pt",
    "german_level": "A2",
    "learning_duration": NaN,
    "start_time": "2026-01-10T14:53:55.028Z",
    "end_time": "2026-01-10T15:04:36.268Z",
    "trial": 33,
    "sentence": "Er bleibt zu Hause, während seine arbeitet Frau",
    "condition": "complex_ambiguous",
    "expected": "ungrammatical",
    "response": "ungrammatical",
    "response_time": 4035,
    "correct": true
  },
  {
    "participant_id": "PMK8FE11WX5I4",
    "language_group": "pt",
    "german_level": "A2",
    "learning_duration": NaN,
    "start_time": "2026-01-10T14:53:55.028Z",
    "end_time": "2026-01-10T15:04:36.268Z",
    "trial": 34,
    "sentence": "Sie kommen morgen an",
    "condition": "simple_non_ambiguous",
    "expected": "grammatical",
    "response": "ungrammatical",
    "response_time": 5771,
    "correct": false
  },
  {
    "participant_id": "PMK8FE11WX5I4",
    "language_group": "pt",
    "german_level": "A2",
    "learning_duration": NaN,
    "start_time": "2026-01-10T14:53:55.028Z",
    "end_time": "2026-01-10T15:04:36.268Z",
    "trial": 35,
    "sentence": "Ich gehe raus, obwohl das Wetter schlecht ist.",
    "condition": "complex_non_ambiguous",
    "expected": "grammatical",
    "response": "ungrammatical",
    "response_time": 7412,
    "correct": false
  },
  {
    "participant_id": "PMK8FE11WX5I4",
    "language_group": "pt",
    "german_level": "A2",
    "learning_duration": NaN,
    "start_time": "2026-01-10T14:53:55.028Z",
    "end_time": "2026-01-10T15:04:36.268Z",
    "trial": 36,
    "sentence": "Ich schenke dir eine Blume",
    "condition": "simple_non_ambiguous",
    "expected": "grammatical",
    "response": "ungrammatical",
    "response_time": 4035,
    "correct": false
  },
  {
    "participant_id": "PMK8FE11WX5I4",
    "language_group": "pt",
    "german_level": "A2",
    "learning_duration": NaN,
    "start_time": "2026-01-10T14:53:55.028Z",
    "end_time": "2026-01-10T15:04:36.268Z",
    "trial": 37,
    "sentence": "Wir geben sie die Schlüssel",
    "condition": "simple_ambiguous",
    "expected": "ungrammatical",
    "response": "ungrammatical",
    "response_time": 5723,
    "correct": true
  },
  {
    "participant_id": "PMK8FE11WX5I4",
    "language_group": "pt",
    "german_level": "A2",
    "learning_duration": NaN,
    "start_time": "2026-01-10T14:53:55.028Z",
    "end_time": "2026-01-10T15:04:36.268Z",
    "trial": 38,
    "sentence": "Sie lernt Deutsch, seit sie wohnt in Berlin",
    "condition": "complex_ambiguous",
    "expected": "ungrammatical",
    "response": "grammatical",
    "response_time": 3264,
    "correct": false
  },
  {
    "participant_id": "PMK8FE11WX5I4",
    "language_group": "pt",
    "german_level": "A2",
    "learning_duration": NaN,
    "start_time": "2026-01-10T14:53:55.028Z",
    "end_time": "2026-01-10T15:04:36.268Z",
    "trial": 39,
    "sentence": "Er kauft Blumen, bevor er geht nach Hause",
    "condition": "complex_ambiguous",
    "expected": "ungrammatical",
    "response": "grammatical",
    "response_time": 2177,
    "correct": false
  },
  {
    "participant_id": "PMK8FE11WX5I4",
    "language_group": "pt",
    "german_level": "A2",
    "learning_duration": NaN,
    "start_time": "2026-01-10T14:53:55.028Z",
    "end_time": "2026-01-10T15:04:36.268Z",
    "trial": 40,
    "sentence": "Er sieht mich",
    "condition": "simple_non_ambiguous",
    "expected": "grammatical",
    "response": "grammatical",
    "response_time": 4600,
    "correct": true
  },
  {
    "participant_id": "PMK8FE11WX5I4",
    "language_group": "pt",
    "german_level": "A2",
    "learning_duration": NaN,
    "start_time": "2026-01-10T14:53:55.028Z",
    "end_time": "2026-01-10T15:04:36.268Z",
    "trial": 41,
    "sentence": "Ich schenke dich eine Blume",
    "condition": "simple_ambiguous",
    "expected": "ungrammatical",
    "response": "grammatical",
    "response_time": 5086,
    "correct": false
  },
  {
    "participant_id": "PMK8FE11WX5I4",
    "language_group": "pt",
    "german_level": "A2",
    "learning_duration": NaN,
    "start_time": "2026-01-10T14:53:55.028Z",
    "end_time": "2026-01-10T15:04:36.268Z",
    "trial": 42,
    "sentence": "Wir fahren in Urlaub, nachdem wir haben gespart",
    "condition": "complex_ambiguous",
    "expected": "ungrammatical",
    "response": "ungrammatical",
    "response_time": 4812,
    "correct": true
  },
  {
    "participant_id": "PMK8FE11WX5I4",
    "language_group": "pt",
    "german_level": "A2",
    "learning_duration": NaN,
    "start_time": "2026-01-10T14:53:55.028Z",
    "end_time": "2026-01-10T15:04:36.268Z",
    "trial": 43,
    "sentence": "Ich rufe dich an, sobald ich habe Zeit",
    "condition": "complex_ambiguous",
    "expected": "ungrammatical",
    "response": "grammatical",
    "response_time": 4675,
    "correct": false
  },
  {
    "participant_id": "PMK8FE11WX5I4",
    "language_group": "pt",
    "german_level": "A2",
    "learning_duration": NaN,
    "start_time": "2026-01-10T14:53:55.028Z",
    "end_time": "2026-01-10T15:04:36.268Z",
    "trial": 44,
    "sentence": "Sie ankommen morgen",
    "condition": "simple_ambiguous",
    "expected": "ungrammatical",
    "response": "grammatical",
    "response_time": 6628,
    "correct": false
  },
  {
    "participant_id": "PMK8FE11WX5I4",
    "language_group": "pt",
    "german_level": "A2",
    "learning_duration": NaN,
    "start_time": "2026-01-10T14:53:55.028Z",
    "end_time": "2026-01-10T15:04:36.268Z",
    "trial": 45,
    "sentence": "Wann ankommst du in Berlin?",
    "condition": "simple_ambiguous",
    "expected": "ungrammatical",
    "response": "grammatical",
    "response_time": 5146,
    "correct": false
  },
  {
    "participant_id": "PMK8FE11WX5I4",
    "language_group": "pt",
    "german_level": "A2",
    "learning_duration": NaN,
    "start_time": "2026-01-10T14:53:55.028Z",
    "end_time": "2026-01-10T15:04:36.268Z",
    "trial": 46,
    "sentence": "Wir bleiben drinnen, falls es regnet heute",
    "condition": "complex_non_ambiguous",
    "expected": "ungrammatical",
    "response": "grammatical",
    "response_time": 7279,
    "correct": false
  },
  {
    "participant_id": "PMK8FE11WX5I4",
    "language_group": "pt",
    "german_level": "A2",
    "learning_duration": NaN,
    "start_time": "2026-01-10T14:53:55.028Z",
    "end_time": "2026-01-10T15:04:36.268Z",
    "trial": 47,
    "sentence": "Er schläft, da er müde ist.",
    "condition": "complex_non_ambiguous",
    "expected": "grammatical",
    "response": "grammatical",
    "response_time": 5670,
    "correct": true
  },
  {
    "participant_id": "PMK8FE11WX5I4",
    "language_group": "pt",
    "german_level": "A2",
    "learning_duration": NaN,
    "start_time": "2026-01-10T14:53:55.028Z",
    "end_time": "2026-01-10T15:04:36.268Z",
    "trial": 48,
    "sentence": "Er bringt ihnen die Zeitung",
    "condition": "simple_non_ambiguous",
    "expected": "grammatical",
    "response": "ungrammatical",
    "response_time": 3988,
    "correct": false
  },
  {
    "participant_id": "PMK8FE11WX5I4",
    "language_group": "pt",
    "german_level": "A2",
    "learning_duration": NaN,
    "start_time": "2026-01-10T14:53:55.028Z",
    "end_time": "2026-01-10T15:04:36.268Z",
    "trial": 49,
    "sentence": "Ich gebe er das Buch",
    "condition": "simple_ambiguous",
    "expected": "ungrammatical",
    "response": "grammatical",
    "response_time": 4406,
    "correct": false
  },
  {
    "participant_id": "PMK8FE11WX5I4",
    "language_group": "pt",
    "german_level": "A2",
    "learning_duration": NaN,
    "start_time": "2026-01-10T14:53:55.028Z",
    "end_time": "2026-01-10T15:04:36.268Z",
    "trial": 50,
    "sentence": "Den Ball jagt der Hund im Garten",
    "condition": "simple_ambiguous",
    "expected": "grammatical",
    "response": "ungrammatical",
    "response_time": 3927,
    "correct": false
  },
  {
    "participant_id": "PMK8FE11WX5I4",
    "language_group": "pt",
    "german_level": "A2",
    "learning_duration": NaN,
    "start_time": "2026-01-10T14:53:55.028Z",
    "end_time": "2026-01-10T15:04:36.268Z",
    "trial": 51,
    "sentence": "Der Spielerin gibt das Kind den Ball",
    "condition": "simple_ambiguous",
    "expected": "grammatical",
    "response": "grammatical",
    "response_time": 3997,
    "correct": true
  },
  {
    "participant_id": "PMK8FE11WX5I4",
    "language_group": "pt",
    "german_level": "A2",
    "learning_duration": NaN,
    "start_time": "2026-01-10T14:53:55.028Z",
    "end_time": "2026-01-10T15:04:36.268Z",
    "trial": 52,
    "sentence": "Ich verstehe, dass du mitkommen willst",
    "condition": "complex_non_ambiguous",
    "expected": "grammatical",
    "response": "ungrammatical",
    "response_time": 5493,
    "correct": false
  },
  {
    "participant_id": "PMK8FE11WX5I4",
    "language_group": "pt",
    "german_level": "A2",
    "learning_duration": NaN,
    "start_time": "2026-01-10T14:53:55.028Z",
    "end_time": "2026-01-10T15:04:36.268Z",
    "trial": 53,
    "sentence": "Die Großmutter hat die Schokolade gegessen",
    "condition": "simple_non_ambiguous",
    "expected": "grammatical",
    "response": "grammatical",
    "response_time": 3930,
    "correct": true
  },
  {
    "participant_id": "PMK8FE11WX5I4",
    "language_group": "pt",
    "german_level": "A2",
    "learning_duration": NaN,
    "start_time": "2026-01-10T14:53:55.028Z",
    "end_time": "2026-01-10T15:04:36.268Z",
    "trial": 54,
    "sentence": "Im Park spielen die Kinder Fußball",
    "condition": "simple_non_ambiguous",
    "expected": "grammatical",
    "response": "grammatical",
    "response_time": 5244,
    "correct": true
  },
  {
    "participant_id": "PMK8FE11WX5I4",
    "language_group": "pt",
    "german_level": "A2",
    "learning_duration": NaN,
    "start_time": "2026-01-10T14:53:55.028Z",
    "end_time": "2026-01-10T15:04:36.268Z",
    "trial": 55,
    "sentence": "Er sieht mir",
    "condition": "simple_ambiguous",
    "expected": "ungrammatical",
    "response": "ungrammatical",
    "response_time": 3329,
    "correct": true
  },
  {
    "participant_id": "PMK8FE11WX5I4",
    "language_group": "pt",
    "german_level": "A2",
    "learning_duration": NaN,
    "start_time": "2026-01-10T14:53:55.028Z",
    "end_time": "2026-01-10T15:04:36.268Z",
    "trial": 56,
    "sentence": "du aufräumst dein Zimmer.",
    "condition": "simple_ambiguous",
    "expected": "ungrammatical",
    "response": "grammatical",
    "response_time": 3474,
    "correct": false
  },
  {
    "participant_id": "PMK8FE1222V3W",
    "language_group": "pt",
    "german_level": "A2",
    "learning_duration": NaN,
    "start_time": "2026-01-10T14:53:55.034Z",
    "end_time": "2026-01-10T15:04:07.168Z",
    "trial": 1,
    "sentence": "Wir geben sie die Schlüssel",
    "condition": "simple_ambiguous",
    "expected": "ungrammatical",
    "response": "ungrammatical",
    "response_time": 2285,
    "correct": true
  },
  {
    "participant_id": "PMK8FE1222V3W",
    "language_group": "pt",
    "german_level": "A2",
    "learning_duration": NaN,
    "start_time": "2026-01-10T14:53:55.034Z",
    "end_time": "2026-01-10T15:04:07.168Z",
    "trial": 2,
    "sentence": "Wir fahren in Urlaub, nachdem wir haben gespart",
    "condition": "complex_ambiguous",
    "expected": "ungrammatical",
    "response": "grammatical",
    "response_time": 7605,
    "correct": false
  },
  {
    "participant_id": "PMK8FE1222V3W",
    "language_group": "pt",
    "german_level": "A2",
    "learning_duration": NaN,
    "start_time": "2026-01-10T14:53:55.034Z",
    "end_time": "2026-01-10T15:04:07.168Z",
    "trial": 3,
    "sentence": "Du räumst dein Zimmer auf",
    "condition": "simple_non_ambiguous",
    "expected": "grammatical",
    "response": "grammatical",
    "response_time": 4587,
    "correct": true
  },
  {
    "participant_id": "PMK8FE1222V3W",
    "language_group": "pt",
    "german_level": "A2",
    "learning_duration": NaN,
    "start_time": "2026-01-10T14:53:55.034Z",
    "end_time": "2026-01-10T15:04:07.168Z",
    "trial": 4,
    "sentence": "Sie kommt nicht, da sie ist sehr krank",
    "condition": "complex_ambiguous",
    "expected": "ungrammatical",
    "response": "grammatical",
    "response_time": 7920,
    "correct": false
  },
  {
    "participant_id": "PMK8FE1222V3W",
    "language_group": "pt",
    "german_level": "A2",
    "learning_duration": NaN,
    "start_time": "2026-01-10T14:53:55.034Z",
    "end_time": "2026-01-10T15:04:07.168Z",
    "trial": 5,
    "sentence": "Sie liebt ihn",
    "condition": "simple_non_ambiguous",
    "expected": "grammatical",
    "response": "ungrammatical",
    "response_time": 5455,
    "correct": false
  },
  {
    "participant_id": "PMK8FE1222V3W",
    "language_group": "pt",
    "german_level": "A2",
    "learning_duration": NaN,
    "start_time": "2026-01-10T14:53:55.034Z",
    "end_time": "2026-01-10T15:04:07.168Z",
    "trial": 6,
    "sentence": "Ich erkläre es, damit er es versteht",
    "condition": "complex_non_ambiguous",
    "expected": "grammatical",
    "response": "ungrammatical",
    "response_time": 5264,
    "correct": false
  },
  {
    "participant_id": "PMK8FE1222V3W",
    "language_group": "pt",
    "german_level": "A2",
    "learning_duration": NaN,
    "start_time": "2026-01-10T14:53:55.034Z",
    "end_time": "2026-01-10T15:04:07.168Z",
    "trial": 7,
    "sentence": "Ich aufstehe jeden Tag um sieben Uhr",
    "condition": "simple_ambiguous",
    "expected": "ungrammatical",
    "response": "grammatical",
    "response_time": 2670,
    "correct": false
  },
  {
    "participant_id": "PMK8FE1222V3W",
    "language_group": "pt",
    "german_level": "A2",
    "learning_duration": NaN,
    "start_time": "2026-01-10T14:53:55.034Z",
    "end_time": "2026-01-10T15:04:07.168Z",
    "trial": 8,
    "sentence": "Er sieht mir",
    "condition": "simple_ambiguous",
    "expected": "ungrammatical",
    "response": "ungrammatical",
    "response_time": 3591,
    "correct": true
  },
  {
    "participant_id": "PMK8FE1222V3W",
    "language_group": "pt",
    "german_level": "A2",
    "learning_duration": NaN,
    "start_time": "2026-01-10T14:53:55.034Z",
    "end_time": "2026-01-10T15:04:07.168Z",
    "trial": 9,
    "sentence": "Er bringt ihnen die Zeitung",
    "condition": "simple_non_ambiguous",
    "expected": "grammatical",
    "response": "grammatical",
    "response_time": 5709,
    "correct": true
  },
  {
    "participant_id": "PMK8FE1222V3W",
    "language_group": "pt",
    "german_level": "A2",
    "learning_duration": NaN,
    "start_time": "2026-01-10T14:53:55.034Z",
    "end_time": "2026-01-10T15:04:07.168Z",
    "trial": 10,
    "sentence": "Ich höre euch",
    "condition": "simple_non_ambiguous",
    "expected": "grammatical",
    "response": "grammatical",
    "response_time": 5862,
    "correct": true
  },
  {
    "participant_id": "PMK8FE1222V3W",
    "language_group": "pt",
    "german_level": "A2",
    "learning_duration": NaN,
    "start_time": "2026-01-10T14:53:55.034Z",
    "end_time": "2026-01-10T15:04:07.168Z",
    "trial": 11,
    "sentence": "Er ist müde, weil er hat spät ins Bett gegangen",
    "condition": "complex_ambiguous",
    "expected": "ungrammatical",
    "response": "ungrammatical",
    "response_time": 6947,
    "correct": true
  },
  {
    "participant_id": "PMK8FE1222V3W",
    "language_group": "pt",
    "german_level": "A2",
    "learning_duration": NaN,
    "start_time": "2026-01-10T14:53:55.034Z",
    "end_time": "2026-01-10T15:04:07.168Z",
    "trial": 12,
    "sentence": "Im Park spielen die Kinder Fußball",
    "condition": "simple_non_ambiguous",
    "expected": "grammatical",
    "response": "grammatical",
    "response_time": 5964,
    "correct": true
  },
  {
    "participant_id": "PMK8FE1222V3W",
    "language_group": "pt",
    "german_level": "A2",
    "learning_duration": NaN,
    "start_time": "2026-01-10T14:53:55.034Z",
    "end_time": "2026-01-10T15:04:07.168Z",
    "trial": 13,
    "sentence": "Sie liebt er",
    "condition": "simple_ambiguous",
    "expected": "ungrammatical",
    "response": "grammatical",
    "response_time": 2395,
    "correct": false
  },
  {
    "participant_id": "PMK8FE1222V3W",
    "language_group": "pt",
    "german_level": "A2",
    "learning_duration": NaN,
    "start_time": "2026-01-10T14:53:55.034Z",
    "end_time": "2026-01-10T15:04:07.168Z",
    "trial": 14,
    "sentence": "Ich gehe raus, obwohl das Wetter schlecht ist.",
    "condition": "complex_non_ambiguous",
    "expected": "grammatical",
    "response": "grammatical",
    "response_time": 5898,
    "correct": true
  },
  {
    "participant_id": "PMK8FE1222V3W",
    "language_group": "pt",
    "german_level": "A2",
    "learning_duration": NaN,
    "start_time": "2026-01-10T14:53:55.034Z",
    "end_time": "2026-01-10T15:04:07.168Z",
    "trial": 15,
    "sentence": "Mach das Licht an",
    "condition": "simple_non_ambiguous",
    "expected": "grammatical",
    "response": "ungrammatical",
    "response_time": 5993,
    "correct": false
  },
  {
    "participant_id": "PMK8FE1222V3W",
    "language_group": "pt",
    "german_level": "A2",
    "learning_duration": NaN,
    "start_time": "2026-01-10T14:53:55.034Z",
    "end_time": "2026-01-10T15:04:07.168Z",
    "trial": 16,
    "sentence": "Den Ball jagt der Hund im Garten",
    "condition": "simple_ambiguous",
    "expected": "grammatical",
    "response": "ungrammatical",
    "response_time": 3518,
    "correct": false
  },
  {
    "participant_id": "PMK8FE1222V3W",
    "language_group": "pt",
    "german_level": "A2",
    "learning_duration": NaN,
    "start_time": "2026-01-10T14:53:55.034Z",
    "end_time": "2026-01-10T15:04:07.168Z",
    "trial": 17,
    "sentence": "Ich schenke dir eine Blume",
    "condition": "simple_non_ambiguous",
    "expected": "grammatical",
    "response": "ungrammatical",
    "response_time": 6035,
    "correct": false
  },
  {
    "participant_id": "PMK8FE1222V3W",
    "language_group": "pt",
    "german_level": "A2",
    "learning_duration": NaN,
    "start_time": "2026-01-10T14:53:55.034Z",
    "end_time": "2026-01-10T15:04:07.168Z",
    "trial": 18,
    "sentence": "Er trinkt, weil er Durst hat",
    "condition": "complex_non_ambiguous",
    "expected": "grammatical",
    "response": "grammatical",
    "response_time": 5348,
    "correct": true
  },
  {
    "participant_id": "PMK8FE1222V3W",
    "language_group": "pt",
    "german_level": "A2",
    "learning_duration": NaN,
    "start_time": "2026-01-10T14:53:55.034Z",
    "end_time": "2026-01-10T15:04:07.168Z",
    "trial": 19,
    "sentence": "Sie aufmacht das Fenster",
    "condition": "simple_ambiguous",
    "expected": "ungrammatical",
    "response": "grammatical",
    "response_time": 2122,
    "correct": false
  },
  {
    "participant_id": "PMK8FE1222V3W",
    "language_group": "pt",
    "german_level": "A2",
    "learning_duration": NaN,
    "start_time": "2026-01-10T14:53:55.034Z",
    "end_time": "2026-01-10T15:04:07.168Z",
    "trial": 20,
    "sentence": "Wir geben ihr die Schlüssel",
    "condition": "simple_non_ambiguous",
    "expected": "grammatical",
    "response": "grammatical",
    "response_time": 5872,
    "correct": true
  },
  {
    "participant_id": "PMK8FE1222V3W",
    "language_group": "pt",
    "german_level": "A2",
    "learning_duration": NaN,
    "start_time": "2026-01-10T14:53:55.034Z",
    "end_time": "2026-01-10T15:04:07.168Z",
    "trial": 21,
    "sentence": "Sie kommen morgen an",
    "condition": "simple_non_ambiguous",
    "expected": "grammatical",
    "response": "grammatical",
    "response_time": 4690,
    "correct": true
  },
  {
    "participant_id": "PMK8FE1222V3W",
    "language_group": "pt",
    "german_level": "A2",
    "learning_duration": NaN,
    "start_time": "2026-01-10T14:53:55.034Z",
    "end_time": "2026-01-10T15:04:07.168Z",
    "trial": 22,
    "sentence": "Er ruft mich jeden Sonntag an",
    "condition": "simple_non_ambiguous",
    "expected": "grammatical",
    "response": "grammatical",
    "response_time": 5376,
    "correct": true
  },
  {
    "participant_id": "PMK8FE1222V3W",
    "language_group": "pt",
    "german_level": "A2",
    "learning_duration": NaN,
    "start_time": "2026-01-10T14:53:55.034Z",
    "end_time": "2026-01-10T15:04:07.168Z",
    "trial": 23,
    "sentence": "Wann kommst du in Berlin an?",
    "condition": "simple_non_ambiguous",
    "expected": "grammatical",
    "response": "grammatical",
    "response_time": 4483,
    "correct": true
  },
  {
    "participant_id": "PMK8FE1222V3W",
    "language_group": "pt",
    "german_level": "A2",
    "learning_duration": NaN,
    "start_time": "2026-01-10T14:53:55.034Z",
    "end_time": "2026-01-10T15:04:07.168Z",
    "trial": 24,
    "sentence": "Den Alien erschreckt das Kind",
    "condition": "simple_ambiguous",
    "expected": "grammatical",
    "response": "ungrammatical",
    "response_time": 4184,
    "correct": false
  },
  {
    "participant_id": "PMK8FE1222V3W",
    "language_group": "pt",
    "german_level": "A2",
    "learning_duration": NaN,
    "start_time": "2026-01-10T14:53:55.034Z",
    "end_time": "2026-01-10T15:04:07.168Z",
    "trial": 25,
    "sentence": "Er bringt sie die Zeitung",
    "condition": "simple_ambiguous",
    "expected": "ungrammatical",
    "response": "ungrammatical",
    "response_time": 2968,
    "correct": true
  },
  {
    "participant_id": "PMK8FE1222V3W",
    "language_group": "pt",
    "german_level": "A2",
    "learning_duration": NaN,
    "start_time": "2026-01-10T14:53:55.034Z",
    "end_time": "2026-01-10T15:04:07.168Z",
    "trial": 26,
    "sentence": "Der Spielerin gibt das Kind den Ball",
    "condition": "simple_ambiguous",
    "expected": "grammatical",
    "response": "grammatical",
    "response_time": 3990,
    "correct": true
  },
  {
    "participant_id": "PMK8FE1222V3W",
    "language_group": "pt",
    "german_level": "A2",
    "learning_duration": NaN,
    "start_time": "2026-01-10T14:53:55.034Z",
    "end_time": "2026-01-10T15:04:07.168Z",
    "trial": 27,
    "sentence": "Sie macht das Fenster auf",
    "condition": "simple_non_ambiguous",
    "expected": "grammatical",
    "response": "ungrammatical",
    "response_time": 4922,
    "correct": false
  },
  {
    "participant_id": "PMK8FE1222V3W",
    "language_group": "pt",
    "german_level": "A2",
    "learning_duration": NaN,
    "start_time": "2026-01-10T14:53:55.034Z",
    "end_time": "2026-01-10T15:04:07.168Z",
    "trial": 28,
    "sentence": "Er kauft Blumen, bevor er geht nach Hause",
    "condition": "complex_ambiguous",
    "expected": "ungrammatical",
    "response": "grammatical",
    "response_time": 6218,
    "correct": false
  },
  {
    "participant_id": "PMK8FE1222V3W",
    "language_group": "pt",
    "german_level": "A2",
    "learning_duration": NaN,
    "start_time": "2026-01-10T14:53:55.034Z",
    "end_time": "2026-01-10T15:04:07.168Z",
    "trial": 29,
    "sentence": "Sie zeigt mir den Weg",
    "condition": "simple_non_ambiguous",
    "expected": "grammatical",
    "response": "grammatical",
    "response_time": 4759,
    "correct": true
  },
  {
    "participant_id": "PMK8FE1222V3W",
    "language_group": "pt",
    "german_level": "A2",
    "learning_duration": NaN,
    "start_time": "2026-01-10T14:53:55.034Z",
    "end_time": "2026-01-10T15:04:07.168Z",
    "trial": 30,
    "sentence": "Mach an das Licht!",
    "condition": "simple_ambiguous",
    "expected": "ungrammatical",
    "response": "ungrammatical",
    "response_time": 2847,
    "correct": true
  },
  {
    "participant_id": "PMK8FE1222V3W",
    "language_group": "pt",
    "german_level": "A2",
    "learning_duration": NaN,
    "start_time": "2026-01-10T14:53:55.034Z",
    "end_time": "2026-01-10T15:04:07.168Z",
    "trial": 31,
    "sentence": "Er bleibt zu Hause, während seine arbeitet Frau",
    "condition": "complex_ambiguous",
    "expected": "ungrammatical",
    "response": "ungrammatical",
    "response_time": 6297,
    "correct": true
  },
  {
    "participant_id": "PMK8FE1222V3W",
    "language_group": "pt",
    "german_level": "A2",
    "learning_duration": NaN,
    "start_time": "2026-01-10T14:53:55.034Z",
    "end_time": "2026-01-10T15:04:07.168Z",
    "trial": 32,
    "sentence": "Den Kater jagt der Hund",
    "condition": "simple_ambiguous",
    "expected": "grammatical",
    "response": "grammatical",
    "response_time": 4188,
    "correct": true
  },
  {
    "participant_id": "PMK8FE1222V3W",
    "language_group": "pt",
    "german_level": "A2",
    "learning_duration": NaN,
    "start_time": "2026-01-10T14:53:55.034Z",
    "end_time": "2026-01-10T15:04:07.168Z",
    "trial": 33,
    "sentence": "du aufräumst dein Zimmer.",
    "condition": "simple_ambiguous",
    "expected": "ungrammatical",
    "response": "ungrammatical",
    "response_time": 4561,
    "correct": true
  },
  {
    "participant_id": "PMK8FE1222V3W",
    "language_group": "pt",
    "german_level": "A2",
    "learning_duration": NaN,
    "start_time": "2026-01-10T14:53:55.034Z",
    "end_time": "2026-01-10T15:04:07.168Z",
    "trial": 34,
    "sentence": "Er sieht mich",
    "condition": "simple_non_ambiguous",
    "expected": "grammatical",
    "response": "grammatical",
    "response_time": 5422,
    "correct": true
  },
  {
    "participant_id": "PMK8FE1222V3W",
    "language_group": "pt",
    "german_level": "A2",
    "learning_duration": NaN,
    "start_time": "2026-01-10T14:53:55.034Z",
    "end_time": "2026-01-10T15:04:07.168Z",
    "trial": 35,
    "sentence": "Ihr seid eingeladen, wenn Ihr Zeit habt",
    "condition": "complex_non_ambiguous",
    "expected": "grammatical",
    "response": "ungrammatical",
    "response_time": 6152,
    "correct": false
  },
  {
    "participant_id": "PMK8FE1222V3W",
    "language_group": "pt",
    "german_level": "A2",
    "learning_duration": NaN,
    "start_time": "2026-01-10T14:53:55.034Z",
    "end_time": "2026-01-10T15:04:07.168Z",
    "trial": 36,
    "sentence": "Sie zeigt mich den Weg",
    "condition": "simple_ambiguous",
    "expected": "ungrammatical",
    "response": "grammatical",
    "response_time": 4587,
    "correct": false
  },
  {
    "participant_id": "PMK8FE1222V3W",
    "language_group": "pt",
    "german_level": "A2",
    "learning_duration": NaN,
    "start_time": "2026-01-10T14:53:55.034Z",
    "end_time": "2026-01-10T15:04:07.168Z",
    "trial": 37,
    "sentence": "Sie ankommen morgen",
    "condition": "simple_ambiguous",
    "expected": "ungrammatical",
    "response": "grammatical",
    "response_time": 3278,
    "correct": false
  },
  {
    "participant_id": "PMK8FE1222V3W",
    "language_group": "pt",
    "german_level": "A2",
    "learning_duration": NaN,
    "start_time": "2026-01-10T14:53:55.034Z",
    "end_time": "2026-01-10T15:04:07.168Z",
    "trial": 38,
    "sentence": "Ich verstehe, dass du mitkommen willst",
    "condition": "complex_non_ambiguous",
    "expected": "grammatical",
    "response": "grammatical",
    "response_time": 6678,
    "correct": true
  },
  {
    "participant_id": "PMK8FE1222V3W",
    "language_group": "pt",
    "german_level": "A2",
    "learning_duration": NaN,
    "start_time": "2026-01-10T14:53:55.034Z",
    "end_time": "2026-01-10T15:04:07.168Z",
    "trial": 39,
    "sentence": "Ich kann nicht einschlafen",
    "condition": "simple_non_ambiguous",
    "expected": "grammatical",
    "response": "grammatical",
    "response_time": 5794,
    "correct": true
  },
  {
    "participant_id": "PMK8FE1222V3W",
    "language_group": "pt",
    "german_level": "A2",
    "learning_duration": NaN,
    "start_time": "2026-01-10T14:53:55.034Z",
    "end_time": "2026-01-10T15:04:07.168Z",
    "trial": 40,
    "sentence": "Sie lachen, denn sie sind glücklich",
    "condition": "complex_non_ambiguous",
    "expected": "grammatical",
    "response": "grammatical",
    "response_time": 4779,
    "correct": true
  },
  {
    "participant_id": "PMK8FE1222V3W",
    "language_group": "pt",
    "german_level": "A2",
    "learning_duration": NaN,
    "start_time": "2026-01-10T14:53:55.034Z",
    "end_time": "2026-01-10T15:04:07.168Z",
    "trial": 41,
    "sentence": "Langsam fährt das Auto die Straße entlang",
    "condition": "simple_non_ambiguous",
    "expected": "grammatical",
    "response": "grammatical",
    "response_time": 4634,
    "correct": true
  },
  {
    "participant_id": "PMK8FE1222V3W",
    "language_group": "pt",
    "german_level": "A2",
    "learning_duration": NaN,
    "start_time": "2026-01-10T14:53:55.034Z",
    "end_time": "2026-01-10T15:04:07.168Z",
    "trial": 42,
    "sentence": "sie steht jeden Tag um sechs Uhr auf",
    "condition": "simple_non_ambiguous",
    "expected": "grammatical",
    "response": "grammatical",
    "response_time": 4841,
    "correct": true
  },
  {
    "participant_id": "PMK8FE1222V3W",
    "language_group": "pt",
    "german_level": "A2",
    "learning_duration": NaN,
    "start_time": "2026-01-10T14:53:55.034Z",
    "end_time": "2026-01-10T15:04:07.168Z",
    "trial": 43,
    "sentence": "Ich höre dir",
    "condition": "simple_ambiguous",
    "expected": "ungrammatical",
    "response": "grammatical",
    "response_time": 3066,
    "correct": false
  },
  {
    "participant_id": "PMK8FE1222V3W",
    "language_group": "pt",
    "german_level": "A2",
    "learning_duration": NaN,
    "start_time": "2026-01-10T14:53:55.034Z",
    "end_time": "2026-01-10T15:04:07.168Z",
    "trial": 44,
    "sentence": "Ich schenke dich eine Blume",
    "condition": "simple_ambiguous",
    "expected": "ungrammatical",
    "response": "ungrammatical",
    "response_time": 4973,
    "correct": true
  },
  {
    "participant_id": "PMK8FE1222V3W",
    "language_group": "pt",
    "german_level": "A2",
    "learning_duration": NaN,
    "start_time": "2026-01-10T14:53:55.034Z",
    "end_time": "2026-01-10T15:04:07.168Z",
    "trial": 45,
    "sentence": "Ich gebe ihm das Buch",
    "condition": "simple_non_ambiguous",
    "expected": "grammatical",
    "response": "grammatical",
    "response_time": 4212,
    "correct": true
  },
  {
    "participant_id": "PMK8FE1222V3W",
    "language_group": "pt",
    "german_level": "A2",
    "learning_duration": NaN,
    "start_time": "2026-01-10T14:53:55.034Z",
    "end_time": "2026-01-10T15:04:07.168Z",
    "trial": 46,
    "sentence": "Ich kann nicht schlafen ein.",
    "condition": "simple_ambiguous",
    "expected": "ungrammatical",
    "response": "grammatical",
    "response_time": 4586,
    "correct": false
  },
  {
    "participant_id": "PMK8FE1222V3W",
    "language_group": "pt",
    "german_level": "A2",
    "learning_duration": NaN,
    "start_time": "2026-01-10T14:53:55.034Z",
    "end_time": "2026-01-10T15:04:07.168Z",
    "trial": 47,
    "sentence": "Sie lernt Deutsch, seit sie wohnt in Berlin",
    "condition": "complex_ambiguous",
    "expected": "ungrammatical",
    "response": "ungrammatical",
    "response_time": 5723,
    "correct": true
  },
  {
    "participant_id": "PMK8FE1222V3W",
    "language_group": "pt",
    "german_level": "A2",
    "learning_duration": NaN,
    "start_time": "2026-01-10T14:53:55.034Z",
    "end_time": "2026-01-10T15:04:07.168Z",
    "trial": 48,
    "sentence": "Ich gebe er das Buch",
    "condition": "simple_ambiguous",
    "expected": "ungrammatical",
    "response": "grammatical",
    "response_time": 3092,
    "correct": false
  },
  {
    "participant_id": "PMK8FE1222V3W",
    "language_group": "pt",
    "german_level": "A2",
    "learning_duration": NaN,
    "start_time": "2026-01-10T14:53:55.034Z",
    "end_time": "2026-01-10T15:04:07.168Z",
    "trial": 49,
    "sentence": "Er anruft mich jeden Sonntag",
    "condition": "simple_ambiguous",
    "expected": "ungrammatical",
    "response": "grammatical",
    "response_time": 4855,
    "correct": false
  },
  {
    "participant_id": "PMK8FE1222V3W",
    "language_group": "pt",
    "german_level": "A2",
    "learning_duration": NaN,
    "start_time": "2026-01-10T14:53:55.034Z",
    "end_time": "2026-01-10T15:04:07.168Z",
    "trial": 50,
    "sentence": "Wir bleiben drinnen, falls es regnet heute",
    "condition": "complex_non_ambiguous",
    "expected": "ungrammatical",
    "response": "ungrammatical",
    "response_time": 6957,
    "correct": true
  },
  {
    "participant_id": "PMK8FE1222V3W",
    "language_group": "pt",
    "german_level": "A2",
    "learning_duration": NaN,
    "start_time": "2026-01-10T14:53:55.034Z",
    "end_time": "2026-01-10T15:04:07.168Z",
    "trial": 51,
    "sentence": "Er schläft, da er müde ist.",
    "condition": "complex_non_ambiguous",
    "expected": "grammatical",
    "response": "grammatical",
    "response_time": 5463,
    "correct": true
  },
  {
    "participant_id": "PMK8FE1222V3W",
    "language_group": "pt",
    "german_level": "A2",
    "learning_duration": NaN,
    "start_time": "2026-01-10T14:53:55.034Z",
    "end_time": "2026-01-10T15:04:07.168Z",
    "trial": 52,
    "sentence": "Wann ankommst du in Berlin?",
    "condition": "simple_ambiguous",
    "expected": "ungrammatical",
    "response": "ungrammatical",
    "response_time": 3095,
    "correct": true
  },
  {
    "participant_id": "PMK8FE1222V3W",
    "language_group": "pt",
    "german_level": "A2",
    "learning_duration": NaN,
    "start_time": "2026-01-10T14:53:55.034Z",
    "end_time": "2026-01-10T15:04:07.168Z",
    "trial": 53,
    "sentence": "Ich rufe dich an, sobald ich habe Zeit",
    "condition": "complex_ambiguous",
    "expected": "ungrammatical",
    "response": "ungrammatical",
    "response_time": 4848,
    "correct": true
  },
  {
    "participant_id": "PMK8FE1222V3W",
    "language_group": "pt",
    "german_level": "A2",
    "learning_duration": NaN,
    "start_time": "2026-01-10T14:53:55.034Z",
    "end_time": "2026-01-10T15:04:07.168Z",
    "trial": 54,
    "sentence": "Die Großmutter hat die Schokolade gegessen",
    "condition": "simple_non_ambiguous",
    "expected": "grammatical",
    "response": "ungrammatical",
    "response_time": 5364,
    "correct": false
  },
  {
    "participant_id": "PMK8FE1222V3W",
    "language_group": "pt",
    "german_level": "A2",
    "learning_duration": NaN,
    "start_time": "2026-01-10T14:53:55.034Z",
    "end_time": "2026-01-10T15:04:07.168Z",
    "trial": 55,
    "sentence": "Wir wissen nicht, ob er bei der Prüfung betrogen hat.",
    "condition": "complex_non_ambiguous",
    "expected": "grammatical",
    "response": "grammatical",
    "response_time": 6655,
    "correct": true
  },
  {
    "participant_id": "PMK8FE1222V3W",
    "language_group": "pt",
    "german_level": "A2",
    "learning_duration": NaN,
    "start_time": "2026-01-10T14:53:55.034Z",
    "end_time": "2026-01-10T15:04:07.168Z",
    "trial": 56,
    "sentence": "Mit viel Freude hat die Großmutter die Schokolade gegessen",
    "condition": "simple_non_ambiguous",
    "expected": "grammatical",
    "response": "grammatical",
    "response_time": 5062,
    "correct": true
  },
  {
    "participant_id": "PMI1ZNLZ3A5RD",
    "language_group": "fr",
    "german_level": "B2",
    "learning_duration": "5_to_10_years",
    "start_time": "2025-11-16T17:27:26.464Z",
    "end_time": "2025-11-16T17:32:25.200Z",
    "trial": 1,
    "sentence": "Sie zeigt mich den Weg",
    "condition": "simple_ambiguous",
    "expected": "ungrammatical",
    "response": "grammatical",
    "response_time": 7476,
    "correct": false
  },
  {
    "participant_id": "PMI1ZNLZ3A5RD",
    "language_group": "fr",
    "german_level": "B2",
    "learning_duration": "5_to_10_years",
    "start_time": "2025-11-16T17:27:26.464Z",
    "end_time": "2025-11-16T17:32:25.200Z",
    "trial": 2,
    "sentence": "Wann kommst du in Berlin an?",
    "condition": "simple_non_ambiguous",
    "expected": "grammatical",
    "response": "grammatical",
    "response_time": 3484,
    "correct": true
  },
  {
    "participant_id": "PMI1ZNLZ3A5RD",
    "language_group": "fr",
    "german_level": "B2",
    "learning_duration": "5_to_10_years",
    "start_time": "2025-11-16T17:27:26.464Z",
    "end_time": "2025-11-16T17:32:25.200Z",
    "trial": 3,
    "sentence": "Ich kann nicht einschlafen",
    "condition": "simple_non_ambiguous",
    "expected": "grammatical",
    "response": "grammatical",
    "response_time": 4924,
    "correct": true
  },
  {
    "participant_id": "PMI1ZNLZ3A5RD",
    "language_group": "fr",
    "german_level": "B2",
    "learning_duration": "5_to_10_years",
    "start_time": "2025-11-16T17:27:26.464Z",
    "end_time": "2025-11-16T17:32:25.200Z",
    "trial": 5,
    "sentence": "Der Spielerin gibt das Kind den Ball",
    "condition": "simple_ambiguous",
    "expected": "grammatical",
    "response": "ungrammatical",
    "response_time": 8431,
    "correct": false
  },
  {
    "participant_id": "PMI1ZNLZ3A5RD",
    "language_group": "fr",
    "german_level": "B2",
    "learning_duration": "5_to_10_years",
    "start_time": "2025-11-16T17:27:26.464Z",
    "end_time": "2025-11-16T17:32:25.200Z",
    "trial": 6,
    "sentence": "Sie lernt Deutsch, seit sie wohnt in Berlin",
    "condition": "complex_ambiguous",
    "expected": "ungrammatical",
    "response": "ungrammatical",
    "response_time": 5286,
    "correct": true
  },
  {
    "participant_id": "PMI1ZNLZ3A5RD",
    "language_group": "fr",
    "german_level": "B2",
    "learning_duration": "5_to_10_years",
    "start_time": "2025-11-16T17:27:26.464Z",
    "end_time": "2025-11-16T17:32:25.200Z",
    "trial": 7,
    "sentence": "Wir geben ihr die Schlüssel",
    "condition": "simple_non_ambiguous",
    "expected": "grammatical",
    "response": "grammatical",
    "response_time": 3810,
    "correct": true
  },
  {
    "participant_id": "PMI1ZNLZ3A5RD",
    "language_group": "fr",
    "german_level": "B2",
    "learning_duration": "5_to_10_years",
    "start_time": "2025-11-16T17:27:26.464Z",
    "end_time": "2025-11-16T17:32:25.200Z",
    "trial": 8,
    "sentence": "Ich kann nicht schlafen ein.",
    "condition": "simple_ambiguous",
    "expected": "ungrammatical",
    "response": "ungrammatical",
    "response_time": 3359,
    "correct": true
  },
  {
    "participant_id": "PMI1ZNLZ3A5RD",
    "language_group": "fr",
    "german_level": "B2",
    "learning_duration": "5_to_10_years",
    "start_time": "2025-11-16T17:27:26.464Z",
    "end_time": "2025-11-16T17:32:25.200Z",
    "trial": 9,
    "sentence": "Er ist müde, weil er hat spät ins Bett gegangen",
    "condition": "complex_ambiguous",
    "expected": "ungrammatical",
    "response": "ungrammatical",
    "response_time": 6244,
    "correct": true
  },
  {
    "participant_id": "PMI1ZNLZ3A5RD",
    "language_group": "fr",
    "german_level": "B2",
    "learning_duration": "5_to_10_years",
    "start_time": "2025-11-16T17:27:26.464Z",
    "end_time": "2025-11-16T17:32:25.200Z",
    "trial": 10,
    "sentence": "Er ruft mich jeden Sonntag an",
    "condition": "simple_non_ambiguous",
    "expected": "grammatical",
    "response": "grammatical",
    "response_time": 2802,
    "correct": true
  },
  {
    "participant_id": "PMI1ZNLZ3A5RD",
    "language_group": "fr",
    "german_level": "B2",
    "learning_duration": "5_to_10_years",
    "start_time": "2025-11-16T17:27:26.464Z",
    "end_time": "2025-11-16T17:32:25.200Z",
    "trial": 11,
    "sentence": "Ich gebe ihm das Buch",
    "condition": "simple_non_ambiguous",
    "expected": "grammatical",
    "response": "grammatical",
    "response_time": 3519,
    "correct": true
  },
  {
    "participant_id": "PMI1ZNLZ3A5RD",
    "language_group": "fr",
    "german_level": "B2",
    "learning_duration": "5_to_10_years",
    "start_time": "2025-11-16T17:27:26.464Z",
    "end_time": "2025-11-16T17:32:25.200Z",
    "trial": 12,
    "sentence": "Ich höre dir",
    "condition": "simple_ambiguous",
    "expected": "ungrammatical",
    "response": "grammatical",
    "response_time": 2111,
    "correct": false
  },
  {
    "participant_id": "PMI1ZNLZ3A5RD",
    "language_group": "fr",
    "german_level": "B2",
    "learning_duration": "5_to_10_years",
    "start_time": "2025-11-16T17:27:26.464Z",
    "end_time": "2025-11-16T17:32:25.200Z",
    "trial": 13,
    "sentence": "Ich rufe dich an, sobald ich habe Zeit",
    "condition": "complex_ambiguous",
    "expected": "ungrammatical",
    "response": "ungrammatical",
    "response_time": 8689,
    "correct": true
  },
  {
    "participant_id": "PMI1ZNLZ3A5RD",
    "language_group": "fr",
    "german_level": "B2",
    "learning_duration": "5_to_10_years",
    "start_time": "2025-11-16T17:27:26.464Z",
    "end_time": "2025-11-16T17:32:25.200Z",
    "trial": 14,
    "sentence": "Du räumst dein Zimmer auf",
    "condition": "simple_non_ambiguous",
    "expected": "grammatical",
    "response": "grammatical",
    "response_time": 2989,
    "correct": true
  },
  {
    "participant_id": "PMI1ZNLZ3A5RD",
    "language_group": "fr",
    "german_level": "B2",
    "learning_duration": "5_to_10_years",
    "start_time": "2025-11-16T17:27:26.464Z",
    "end_time": "2025-11-16T17:32:25.200Z",
    "trial": 15,
    "sentence": "Er bringt sie die Zeitung",
    "condition": "simple_ambiguous",
    "expected": "ungrammatical",
    "response": "grammatical",
    "response_time": 3846,
    "correct": false
  },
  {
    "participant_id": "PMI1ZNLZ3A5RD",
    "language_group": "fr",
    "german_level": "B2",
    "learning_duration": "5_to_10_years",
    "start_time": "2025-11-16T17:27:26.464Z",
    "end_time": "2025-11-16T17:32:25.200Z",
    "trial": 16,
    "sentence": "Er sieht mir",
    "condition": "simple_ambiguous",
    "expected": "ungrammatical",
    "response": "grammatical",
    "response_time": 1564,
    "correct": false
  },
  {
    "participant_id": "PMI1ZNLZ3A5RD",
    "language_group": "fr",
    "german_level": "B2",
    "learning_duration": "5_to_10_years",
    "start_time": "2025-11-16T17:27:26.464Z",
    "end_time": "2025-11-16T17:32:25.200Z",
    "trial": 17,
    "sentence": "Sie liebt ihn",
    "condition": "simple_non_ambiguous",
    "expected": "grammatical",
    "response": "grammatical",
    "response_time": 2645,
    "correct": true
  },
  {
    "participant_id": "PMI1ZNLZ3A5RD",
    "language_group": "fr",
    "german_level": "B2",
    "learning_duration": "5_to_10_years",
    "start_time": "2025-11-16T17:27:26.464Z",
    "end_time": "2025-11-16T17:32:25.200Z",
    "trial": 18,
    "sentence": "Sie zeigt mir den Weg",
    "condition": "simple_non_ambiguous",
    "expected": "grammatical",
    "response": "grammatical",
    "response_time": 2658,
    "correct": true
  },
  {
    "participant_id": "PMI1ZNLZ3A5RD",
    "language_group": "fr",
    "german_level": "B2",
    "learning_duration": "5_to_10_years",
    "start_time": "2025-11-16T17:27:26.464Z",
    "end_time": "2025-11-16T17:32:25.200Z",
    "trial": 19,
    "sentence": "Ich verstehe, dass du mitkommen willst",
    "condition": "complex_non_ambiguous",
    "expected": "grammatical",
    "response": "ungrammatical",
    "response_time": 2365,
    "correct": false
  },
  {
    "participant_id": "PMI1ZNLZ3A5RD",
    "language_group": "fr",
    "german_level": "B2",
    "learning_duration": "5_to_10_years",
    "start_time": "2025-11-16T17:27:26.464Z",
    "end_time": "2025-11-16T17:32:25.200Z",
    "trial": 20,
    "sentence": "Ihr seid eingeladen, wenn Ihr Zeit habt",
    "condition": "complex_non_ambiguous",
    "expected": "grammatical",
    "response": "grammatical",
    "response_time": 4968,
    "correct": true
  },
  {
    "participant_id": "PMI1ZNLZ3A5RD",
    "language_group": "fr",
    "german_level": "B2",
    "learning_duration": "5_to_10_years",
    "start_time": "2025-11-16T17:27:26.464Z",
    "end_time": "2025-11-16T17:32:25.200Z",
    "trial": 21,
    "sentence": "Ich gebe er das Buch",
    "condition": "simple_ambiguous",
    "expected": "ungrammatical",
    "response": "grammatical",
    "response_time": 2690,
    "correct": false
  },
  {
    "participant_id": "PMI1ZNLZ3A5RD",
    "language_group": "fr",
    "german_level": "B2",
    "learning_duration": "5_to_10_years",
    "start_time": "2025-11-16T17:27:26.464Z",
    "end_time": "2025-11-16T17:32:25.200Z",
    "trial": 22,
    "sentence": "Im Park spielen die Kinder Fußball",
    "condition": "simple_non_ambiguous",
    "expected": "grammatical",
    "response": "grammatical",
    "response_time": 3473,
    "correct": true
  },
  {
    "participant_id": "PMI1ZNLZ3A5RD",
    "language_group": "fr",
    "german_level": "B2",
    "learning_duration": "5_to_10_years",
    "start_time": "2025-11-16T17:27:26.464Z",
    "end_time": "2025-11-16T17:32:25.200Z",
    "trial": 23,
    "sentence": "Mach das Licht an",
    "condition": "simple_non_ambiguous",
    "expected": "grammatical",
    "response": "grammatical",
    "response_time": 2852,
    "correct": true
  },
  {
    "participant_id": "PMI1ZNLZ3A5RD",
    "language_group": "fr",
    "german_level": "B2",
    "learning_duration": "5_to_10_years",
    "start_time": "2025-11-16T17:27:26.464Z",
    "end_time": "2025-11-16T17:32:25.200Z",
    "trial": 24,
    "sentence": "Ich höre euch",
    "condition": "simple_non_ambiguous",
    "expected": "grammatical",
    "response": "grammatical",
    "response_time": 1693,
    "correct": true
  },
  {
    "participant_id": "PMI1ZNLZ3A5RD",
    "language_group": "fr",
    "german_level": "B2",
    "learning_duration": "5_to_10_years",
    "start_time": "2025-11-16T17:27:26.464Z",
    "end_time": "2025-11-16T17:32:25.200Z",
    "trial": 25,
    "sentence": "Er trinkt, weil er Durst hat",
    "condition": "complex_non_ambiguous",
    "expected": "grammatical",
    "response": "grammatical",
    "response_time": 2347,
    "correct": true
  },
  {
    "participant_id": "PMI1ZNLZ3A5RD",
    "language_group": "fr",
    "german_level": "B2",
    "learning_duration": "5_to_10_years",
    "start_time": "2025-11-16T17:27:26.464Z",
    "end_time": "2025-11-16T17:32:25.200Z",
    "trial": 26,
    "sentence": "Er schläft, da er müde ist.",
    "condition": "complex_non_ambiguous",
    "expected": "grammatical",
    "response": "grammatical",
    "response_time": 4016,
    "correct": true
  },
  {
    "participant_id": "PMI1ZNLZ3A5RD",
    "language_group": "fr",
    "german_level": "B2",
    "learning_duration": "5_to_10_years",
    "start_time": "2025-11-16T17:27:26.464Z",
    "end_time": "2025-11-16T17:32:25.200Z",
    "trial": 27,
    "sentence": "Ich gehe raus, obwohl das Wetter schlecht ist.",
    "condition": "complex_non_ambiguous",
    "expected": "grammatical",
    "response": "grammatical",
    "response_time": 3819,
    "correct": true
  },
  {
    "participant_id": "PMI1ZNLZ3A5RD",
    "language_group": "fr",
    "german_level": "B2",
    "learning_duration": "5_to_10_years",
    "start_time": "2025-11-16T17:27:26.464Z",
    "end_time": "2025-11-16T17:32:25.200Z",
    "trial": 28,
    "sentence": "Sie kommt nicht, da sie ist sehr krank",
    "condition": "complex_ambiguous",
    "expected": "ungrammatical",
    "response": "ungrammatical",
    "response_time": 3751,
    "correct": true
  },
  {
    "participant_id": "PMI1ZNLZ3A5RD",
    "language_group": "fr",
    "german_level": "B2",
    "learning_duration": "5_to_10_years",
    "start_time": "2025-11-16T17:27:26.464Z",
    "end_time": "2025-11-16T17:32:25.200Z",
    "trial": 29,
    "sentence": "Den Ball jagt der Hund im Garten",
    "condition": "simple_ambiguous",
    "expected": "grammatical",
    "response": "ungrammatical",
    "response_time": 3983,
    "correct": false
  },
  {
    "participant_id": "PMI1ZNLZ3A5RD",
    "language_group": "fr",
    "german_level": "B2",
    "learning_duration": "5_to_10_years",
    "start_time": "2025-11-16T17:27:26.464Z",
    "end_time": "2025-11-16T17:32:25.200Z",
    "trial": 30,
    "sentence": "Sie liebt er",
    "condition": "simple_ambiguous",
    "expected": "ungrammatical",
    "response": "grammatical",
    "response_time": 1901,
    "correct": false
  },
  {
    "participant_id": "PMI1ZNLZ3A5RD",
    "language_group": "fr",
    "german_level": "B2",
    "learning_duration": "5_to_10_years",
    "start_time": "2025-11-16T17:27:26.464Z",
    "end_time": "2025-11-16T17:32:25.200Z",
    "trial": 31,
    "sentence": "Er bleibt zu Hause, während seine arbeitet Frau",
    "condition": "complex_ambiguous",
    "expected": "ungrammatical",
    "response": "ungrammatical",
    "response_time": 4687,
    "correct": true
  },
  {
    "participant_id": "PMI1ZNLZ3A5RD",
    "language_group": "fr",
    "german_level": "B2",
    "learning_duration": "5_to_10_years",
    "start_time": "2025-11-16T17:27:26.464Z",
    "end_time": "2025-11-16T17:32:25.200Z",
    "trial": 32,
    "sentence": "Sie macht das Fenster auf",
    "condition": "simple_non_ambiguous",
    "expected": "grammatical",
    "response": "grammatical",
    "response_time": 1981,
    "correct": true
  },
  {
    "participant_id": "PMI1ZNLZ3A5RD",
    "language_group": "fr",
    "german_level": "B2",
    "learning_duration": "5_to_10_years",
    "start_time": "2025-11-16T17:27:26.464Z",
    "end_time": "2025-11-16T17:32:25.200Z",
    "trial": 33,
    "sentence": "Ich schenke dir eine Blume",
    "condition": "simple_non_ambiguous",
    "expected": "grammatical",
    "response": "grammatical",
    "response_time": 3565,
    "correct": true
  },
  {
    "participant_id": "PMI1ZNLZ3A5RD",
    "language_group": "fr",
    "german_level": "B2",
    "learning_duration": "5_to_10_years",
    "start_time": "2025-11-16T17:27:26.464Z",
    "end_time": "2025-11-16T17:32:25.200Z",
    "trial": 34,
    "sentence": "sie steht jeden Tag um sechs Uhr auf",
    "condition": "simple_non_ambiguous",
    "expected": "grammatical",
    "response": "grammatical",
    "response_time": 3961,
    "correct": true
  },
  {
    "participant_id": "PMI1ZNLZ3A5RD",
    "language_group": "fr",
    "german_level": "B2",
    "learning_duration": "5_to_10_years",
    "start_time": "2025-11-16T17:27:26.464Z",
    "end_time": "2025-11-16T17:32:25.200Z",
    "trial": 36,
    "sentence": "Wir bleiben drinnen, falls es regnet heute",
    "condition": "complex_non_ambiguous",
    "expected": "ungrammatical",
    "response": "ungrammatical",
    "response_time": 4448,
    "correct": true
  },
  {
    "participant_id": "PMI1ZNLZ3A5RD",
    "language_group": "fr",
    "german_level": "B2",
    "learning_duration": "5_to_10_years",
    "start_time": "2025-11-16T17:27:26.464Z",
    "end_time": "2025-11-16T17:32:25.200Z",
    "trial": 37,
    "sentence": "Mach an das Licht!",
    "condition": "simple_ambiguous",
    "expected": "ungrammatical",
    "response": "grammatical",
    "response_time": 1479,
    "correct": false
  },
  {
    "participant_id": "PMI1ZNLZ3A5RD",
    "language_group": "fr",
    "german_level": "B2",
    "learning_duration": "5_to_10_years",
    "start_time": "2025-11-16T17:27:26.464Z",
    "end_time": "2025-11-16T17:32:25.200Z",
    "trial": 38,
    "sentence": "Sie ankommen morgen",
    "condition": "simple_ambiguous",
    "expected": "ungrammatical",
    "response": "ungrammatical",
    "response_time": 4393,
    "correct": true
  },
  {
    "participant_id": "PMI1ZNLZ3A5RD",
    "language_group": "fr",
    "german_level": "B2",
    "learning_duration": "5_to_10_years",
    "start_time": "2025-11-16T17:27:26.464Z",
    "end_time": "2025-11-16T17:32:25.200Z",
    "trial": 39,
    "sentence": "Sie kommen morgen an",
    "condition": "simple_non_ambiguous",
    "expected": "grammatical",
    "response": "grammatical",
    "response_time": 2028,
    "correct": true
  },
  {
    "participant_id": "PMI1ZNLZ3A5RD",
    "language_group": "fr",
    "german_level": "B2",
    "learning_duration": "5_to_10_years",
    "start_time": "2025-11-16T17:27:26.464Z",
    "end_time": "2025-11-16T17:32:25.200Z",
    "trial": 40,
    "sentence": "Ich aufstehe jeden Tag um sieben Uhr",
    "condition": "simple_ambiguous",
    "expected": "ungrammatical",
    "response": "ungrammatical",
    "response_time": 2386,
    "correct": true
  },
  {
    "participant_id": "PMI1ZNLZ3A5RD",
    "language_group": "fr",
    "german_level": "B2",
    "learning_duration": "5_to_10_years",
    "start_time": "2025-11-16T17:27:26.464Z",
    "end_time": "2025-11-16T17:32:25.200Z",
    "trial": 41,
    "sentence": "Sie lachen, denn sie sind glücklich",
    "condition": "complex_non_ambiguous",
    "expected": "grammatical",
    "response": "grammatical",
    "response_time": 2119,
    "correct": true
  },
  {
    "participant_id": "PMI1ZNLZ3A5RD",
    "language_group": "fr",
    "german_level": "B2",
    "learning_duration": "5_to_10_years",
    "start_time": "2025-11-16T17:27:26.464Z",
    "end_time": "2025-11-16T17:32:25.200Z",
    "trial": 42,
    "sentence": "Wir wissen nicht, ob er bei der Prüfung betrogen hat.",
    "condition": "complex_non_ambiguous",
    "expected": "grammatical",
    "response": "grammatical",
    "response_time": 7365,
    "correct": true
  },
  {
    "participant_id": "PMI1ZNLZ3A5RD",
    "language_group": "fr",
    "german_level": "B2",
    "learning_duration": "5_to_10_years",
    "start_time": "2025-11-16T17:27:26.464Z",
    "end_time": "2025-11-16T17:32:25.200Z",
    "trial": 43,
    "sentence": "Wir fahren in Urlaub, nachdem wir haben gespart",
    "condition": "complex_ambiguous",
    "expected": "ungrammatical",
    "response": "grammatical",
    "response_time": 2844,
    "correct": false
  },
  {
    "participant_id": "PMI1ZNLZ3A5RD",
    "language_group": "fr",
    "german_level": "B2",
    "learning_duration": "5_to_10_years",
    "start_time": "2025-11-16T17:27:26.464Z",
    "end_time": "2025-11-16T17:32:25.200Z",
    "trial": 44,
    "sentence": "du aufräumst dein Zimmer.",
    "condition": "simple_ambiguous",
    "expected": "ungrammatical",
    "response": "ungrammatical",
    "response_time": 2330,
    "correct": true
  },
  {
    "participant_id": "PMI1ZNLZ3A5RD",
    "language_group": "fr",
    "german_level": "B2",
    "learning_duration": "5_to_10_years",
    "start_time": "2025-11-16T17:27:26.464Z",
    "end_time": "2025-11-16T17:32:25.200Z",
    "trial": 45,
    "sentence": "Er bringt ihnen die Zeitung",
    "condition": "simple_non_ambiguous",
    "expected": "grammatical",
    "response": "grammatical",
    "response_time": 2812,
    "correct": true
  },
  {
    "participant_id": "PMI1ZNLZ3A5RD",
    "language_group": "fr",
    "german_level": "B2",
    "learning_duration": "5_to_10_years",
    "start_time": "2025-11-16T17:27:26.464Z",
    "end_time": "2025-11-16T17:32:25.200Z",
    "trial": 46,
    "sentence": "Mit viel Freude hat die Großmutter die Schokolade gegessen",
    "condition": "simple_non_ambiguous",
    "expected": "grammatical",
    "response": "grammatical",
    "response_time": 4824,
    "correct": true
  },
  {
    "participant_id": "PMI1ZNLZ3A5RD",
    "language_group": "fr",
    "german_level": "B2",
    "learning_duration": "5_to_10_years",
    "start_time": "2025-11-16T17:27:26.464Z",
    "end_time": "2025-11-16T17:32:25.200Z",
    "trial": 47,
    "sentence": "Die Großmutter hat die Schokolade gegessen",
    "condition": "simple_non_ambiguous",
    "expected": "grammatical",
    "response": "grammatical",
    "response_time": 2913,
    "correct": true
  },
  {
    "participant_id": "PMI1ZNLZ3A5RD",
    "language_group": "fr",
    "german_level": "B2",
    "learning_duration": "5_to_10_years",
    "start_time": "2025-11-16T17:27:26.464Z",
    "end_time": "2025-11-16T17:32:25.200Z",
    "trial": 48,
    "sentence": "Sie aufmacht das Fenster",
    "condition": "simple_ambiguous",
    "expected": "ungrammatical",
    "response": "ungrammatical",
    "response_time": 1924,
    "correct": true
  },
  {
    "participant_id": "PMI1ZNLZ3A5RD",
    "language_group": "fr",
    "german_level": "B2",
    "learning_duration": "5_to_10_years",
    "start_time": "2025-11-16T17:27:26.464Z",
    "end_time": "2025-11-16T17:32:25.200Z",
    "trial": 49,
    "sentence": "Er kauft Blumen, bevor er geht nach Hause",
    "condition": "complex_ambiguous",
    "expected": "ungrammatical",
    "response": "ungrammatical",
    "response_time": 3751,
    "correct": true
  },
  {
    "participant_id": "PMI1ZNLZ3A5RD",
    "language_group": "fr",
    "german_level": "B2",
    "learning_duration": "5_to_10_years",
    "start_time": "2025-11-16T17:27:26.464Z",
    "end_time": "2025-11-16T17:32:25.200Z",
    "trial": 50,
    "sentence": "Den Alien erschreckt das Kind",
    "condition": "simple_ambiguous",
    "expected": "grammatical",
    "response": "grammatical",
    "response_time": 3715,
    "correct": true
  },
  {
    "participant_id": "PMI1ZNLZ3A5RD",
    "language_group": "fr",
    "german_level": "B2",
    "learning_duration": "5_to_10_years",
    "start_time": "2025-11-16T17:27:26.464Z",
    "end_time": "2025-11-16T17:32:25.200Z",
    "trial": 51,
    "sentence": "Er sieht mich",
    "condition": "simple_non_ambiguous",
    "expected": "grammatical",
    "response": "grammatical",
    "response_time": 2643,
    "correct": true
  },
  {
    "participant_id": "PMI1ZNLZ3A5RD",
    "language_group": "fr",
    "german_level": "B2",
    "learning_duration": "5_to_10_years",
    "start_time": "2025-11-16T17:27:26.464Z",
    "end_time": "2025-11-16T17:32:25.200Z",
    "trial": 52,
    "sentence": "Ich schenke dich eine Blume",
    "condition": "simple_ambiguous",
    "expected": "ungrammatical",
    "response": "grammatical",
    "response_time": 2689,
    "correct": false
  },
  {
    "participant_id": "PMI1ZNLZ3A5RD",
    "language_group": "fr",
    "german_level": "B2",
    "learning_duration": "5_to_10_years",
    "start_time": "2025-11-16T17:27:26.464Z",
    "end_time": "2025-11-16T17:32:25.200Z",
    "trial": 53,
    "sentence": "Langsam fährt das Auto die Straße entlang",
    "condition": "simple_non_ambiguous",
    "expected": "grammatical",
    "response": "grammatical",
    "response_time": 5129,
    "correct": true
  },
  {
    "participant_id": "PMI1ZNLZ3A5RD",
    "language_group": "fr",
    "german_level": "B2",
    "learning_duration": "5_to_10_years",
    "start_time": "2025-11-16T17:27:26.464Z",
    "end_time": "2025-11-16T17:32:25.200Z",
    "trial": 54,
    "sentence": "Er anruft mich jeden Sonntag",
    "condition": "simple_ambiguous",
    "expected": "ungrammatical",
    "response": "ungrammatical",
    "response_time": 2168,
    "correct": true
  },
  {
    "participant_id": "PMI1ZNLZ3A5RD",
    "language_group": "fr",
    "german_level": "B2",
    "learning_duration": "5_to_10_years",
    "start_time": "2025-11-16T17:27:26.464Z",
    "end_time": "2025-11-16T17:32:25.200Z",
    "trial": 55,
    "sentence": "Wann ankommst du in Berlin?",
    "condition": "simple_ambiguous",
    "expected": "ungrammatical",
    "response": "ungrammatical",
    "response_time": 2042,
    "correct": true
  },
  {
    "participant_id": "PMI1ZNLZ3A5RD",
    "language_group": "fr",
    "german_level": "B2",
    "learning_duration": "5_to_10_years",
    "start_time": "2025-11-16T17:27:26.464Z",
    "end_time": "2025-11-16T17:32:25.200Z",
    "trial": 56,
    "sentence": "Wir geben sie die Schlüssel",
    "condition": "simple_ambiguous",
    "expected": "ungrammatical",
    "response": "grammatical",
    "response_time": 2341,
    "correct": false
  },
  {
    "participant_id": "PMHVVZURGHOMH",
    "language_group": "pt",
    "german_level": "B2",
    "learning_duration": "1_to_2_years",
    "start_time": "2025-11-12T10:58:22.205Z",
    "end_time": "2025-11-12T11:05:36.214Z",
    "trial": 1,
    "sentence": "Sie ankommen morgen",
    "condition": "simple_ambiguous",
    "expected": "ungrammatical",
    "response": "ungrammatical",
    "response_time": 3411,
    "correct": true
  },
  {
    "participant_id": "PMHVVZURGHOMH",
    "language_group": "pt",
    "german_level": "B2",
    "learning_duration": "1_to_2_years",
    "start_time": "2025-11-12T10:58:22.205Z",
    "end_time": "2025-11-12T11:05:36.214Z",
    "trial": 2,
    "sentence": "Er bringt sie die Zeitung",
    "condition": "simple_ambiguous",
    "expected": "ungrammatical",
    "response": "grammatical",
    "response_time": 5748,
    "correct": false
  },
  {
    "participant_id": "PMHVVZURGHOMH",
    "language_group": "pt",
    "german_level": "B2",
    "learning_duration": "1_to_2_years",
    "start_time": "2025-11-12T10:58:22.205Z",
    "end_time": "2025-11-12T11:05:36.214Z",
    "trial": 5,
    "sentence": "Wir geben ihr die Schlüssel",
    "condition": "simple_non_ambiguous",
    "expected": "grammatical",
    "response": "ungrammatical",
    "response_time": 6942,
    "correct": false
  },
  {
    "participant_id": "PMHVVZURGHOMH",
    "language_group": "pt",
    "german_level": "B2",
    "learning_duration": "1_to_2_years",
    "start_time": "2025-11-12T10:58:22.205Z",
    "end_time": "2025-11-12T11:05:36.214Z",
    "trial": 9,
    "sentence": "Sie aufmacht das Fenster",
    "condition": "simple_ambiguous",
    "expected": "ungrammatical",
    "response": "ungrammatical",
    "response_time": 2813,
    "correct": true
  },
  {
    "participant_id": "PMHVVZURGHOMH",
    "language_group": "pt",
    "german_level": "B2",
    "learning_duration": "1_to_2_years",
    "start_time": "2025-11-12T10:58:22.205Z",
    "end_time": "2025-11-12T11:05:36.214Z",
    "trial": 10,
    "sentence": "Die Großmutter hat die Schokolade gegessen",
    "condition": "simple_non_ambiguous",
    "expected": "grammatical",
    "response": "grammatical",
    "response_time": 5175,
    "correct": true
  },
  {
    "participant_id": "PMHVVZURGHOMH",
    "language_group": "pt",
    "german_level": "B2",
    "learning_duration": "1_to_2_years",
    "start_time": "2025-11-12T10:58:22.205Z",
    "end_time": "2025-11-12T11:05:36.214Z",
    "trial": 11,
    "sentence": "Den Alien erschreckt das Kind",
    "condition": "simple_ambiguous",
    "expected": "grammatical",
    "response": "ungrammatical",
    "response_time": 7544,
    "correct": false
  },
  {
    "participant_id": "PMHVVZURGHOMH",
    "language_group": "pt",
    "german_level": "B2",
    "learning_duration": "1_to_2_years",
    "start_time": "2025-11-12T10:58:22.205Z",
    "end_time": "2025-11-12T11:05:36.214Z",
    "trial": 12,
    "sentence": "Er bleibt zu Hause, während seine arbeitet Frau",
    "condition": "complex_ambiguous",
    "expected": "ungrammatical",
    "response": "ungrammatical",
    "response_time": 6809,
    "correct": true
  },
  {
    "participant_id": "PMHVVZURGHOMH",
    "language_group": "pt",
    "german_level": "B2",
    "learning_duration": "1_to_2_years",
    "start_time": "2025-11-12T10:58:22.205Z",
    "end_time": "2025-11-12T11:05:36.214Z",
    "trial": 13,
    "sentence": "Er ruft mich jeden Sonntag an",
    "condition": "simple_non_ambiguous",
    "expected": "grammatical",
    "response": "grammatical",
    "response_time": 5538,
    "correct": true
  },
  {
    "participant_id": "PMHVVZURGHOMH",
    "language_group": "pt",
    "german_level": "B2",
    "learning_duration": "1_to_2_years",
    "start_time": "2025-11-12T10:58:22.205Z",
    "end_time": "2025-11-12T11:05:36.214Z",
    "trial": 14,
    "sentence": "Er sieht mich",
    "condition": "simple_non_ambiguous",
    "expected": "grammatical",
    "response": "grammatical",
    "response_time": 3436,
    "correct": true
  },
  {
    "participant_id": "PMHVVZURGHOMH",
    "language_group": "pt",
    "german_level": "B2",
    "learning_duration": "1_to_2_years",
    "start_time": "2025-11-12T10:58:22.205Z",
    "end_time": "2025-11-12T11:05:36.214Z",
    "trial": 16,
    "sentence": "Sie lernt Deutsch, seit sie wohnt in Berlin",
    "condition": "complex_ambiguous",
    "expected": "ungrammatical",
    "response": "ungrammatical",
    "response_time": 6154,
    "correct": true
  },
  {
    "participant_id": "PMHVVZURGHOMH",
    "language_group": "pt",
    "german_level": "B2",
    "learning_duration": "1_to_2_years",
    "start_time": "2025-11-12T10:58:22.205Z",
    "end_time": "2025-11-12T11:05:36.214Z",
    "trial": 17,
    "sentence": "Im Park spielen die Kinder Fußball",
    "condition": "simple_non_ambiguous",
    "expected": "grammatical",
    "response": "grammatical",
    "response_time": 3531,
    "correct": true
  },
  {
    "participant_id": "PMHVVZURGHOMH",
    "language_group": "pt",
    "german_level": "B2",
    "learning_duration": "1_to_2_years",
    "start_time": "2025-11-12T10:58:22.205Z",
    "end_time": "2025-11-12T11:05:36.214Z",
    "trial": 18,
    "sentence": "Er sieht mir",
    "condition": "simple_ambiguous",
    "expected": "ungrammatical",
    "response": "ungrammatical",
    "response_time": 5630,
    "correct": true
  },
  {
    "participant_id": "PMHVVZURGHOMH",
    "language_group": "pt",
    "german_level": "B2",
    "learning_duration": "1_to_2_years",
    "start_time": "2025-11-12T10:58:22.205Z",
    "end_time": "2025-11-12T11:05:36.214Z",
    "trial": 19,
    "sentence": "Er schläft, da er müde ist.",
    "condition": "complex_non_ambiguous",
    "expected": "grammatical",
    "response": "ungrammatical",
    "response_time": 8569,
    "correct": false
  },
  {
    "participant_id": "PMHVVZURGHOMH",
    "language_group": "pt",
    "german_level": "B2",
    "learning_duration": "1_to_2_years",
    "start_time": "2025-11-12T10:58:22.205Z",
    "end_time": "2025-11-12T11:05:36.214Z",
    "trial": 20,
    "sentence": "Sie macht das Fenster auf",
    "condition": "simple_non_ambiguous",
    "expected": "grammatical",
    "response": "grammatical",
    "response_time": 3187,
    "correct": true
  },
  {
    "participant_id": "PMHVVZURGHOMH",
    "language_group": "pt",
    "german_level": "B2",
    "learning_duration": "1_to_2_years",
    "start_time": "2025-11-12T10:58:22.205Z",
    "end_time": "2025-11-12T11:05:36.214Z",
    "trial": 21,
    "sentence": "Sie kommt nicht, da sie ist sehr krank",
    "condition": "complex_ambiguous",
    "expected": "ungrammatical",
    "response": "grammatical",
    "response_time": 7971,
    "correct": false
  },
  {
    "participant_id": "PMHVVZURGHOMH",
    "language_group": "pt",
    "german_level": "B2",
    "learning_duration": "1_to_2_years",
    "start_time": "2025-11-12T10:58:22.205Z",
    "end_time": "2025-11-12T11:05:36.214Z",
    "trial": 22,
    "sentence": "Mach an das Licht!",
    "condition": "simple_ambiguous",
    "expected": "ungrammatical",
    "response": "ungrammatical",
    "response_time": 3040,
    "correct": true
  },
  {
    "participant_id": "PMHVVZURGHOMH",
    "language_group": "pt",
    "german_level": "B2",
    "learning_duration": "1_to_2_years",
    "start_time": "2025-11-12T10:58:22.205Z",
    "end_time": "2025-11-12T11:05:36.214Z",
    "trial": 23,
    "sentence": "Wann kommst du in Berlin an?",
    "condition": "simple_non_ambiguous",
    "expected": "grammatical",
    "response": "grammatical",
    "response_time": 4688,
    "correct": true
  },
  {
    "participant_id": "PMHVVZURGHOMH",
    "language_group": "pt",
    "german_level": "B2",
    "learning_duration": "1_to_2_years",
    "start_time": "2025-11-12T10:58:22.205Z",
    "end_time": "2025-11-12T11:05:36.214Z",
    "trial": 24,
    "sentence": "Ich höre dir",
    "condition": "simple_ambiguous",
    "expected": "ungrammatical",
    "response": "grammatical",
    "response_time": 2966,
    "correct": false
  },
  {
    "participant_id": "PMHVVZURGHOMH",
    "language_group": "pt",
    "german_level": "B2",
    "learning_duration": "1_to_2_years",
    "start_time": "2025-11-12T10:58:22.205Z",
    "end_time": "2025-11-12T11:05:36.214Z",
    "trial": 26,
    "sentence": "Wann ankommst du in Berlin?",
    "condition": "simple_ambiguous",
    "expected": "ungrammatical",
    "response": "ungrammatical",
    "response_time": 7060,
    "correct": true
  },
  {
    "participant_id": "PMHVVZURGHOMH",
    "language_group": "pt",
    "german_level": "B2",
    "learning_duration": "1_to_2_years",
    "start_time": "2025-11-12T10:58:22.205Z",
    "end_time": "2025-11-12T11:05:36.214Z",
    "trial": 28,
    "sentence": "Wir geben sie die Schlüssel",
    "condition": "simple_ambiguous",
    "expected": "ungrammatical",
    "response": "grammatical",
    "response_time": 6294,
    "correct": false
  },
  {
    "participant_id": "PMHVVZURGHOMH",
    "language_group": "pt",
    "german_level": "B2",
    "learning_duration": "1_to_2_years",
    "start_time": "2025-11-12T10:58:22.205Z",
    "end_time": "2025-11-12T11:05:36.214Z",
    "trial": 29,
    "sentence": "Wir wissen nicht, ob er bei der Prüfung betrogen hat.",
    "condition": "complex_non_ambiguous",
    "expected": "grammatical",
    "response": "grammatical",
    "response_time": 4808,
    "correct": true
  },
  {
    "participant_id": "PMHVVZURGHOMH",
    "language_group": "pt",
    "german_level": "B2",
    "learning_duration": "1_to_2_years",
    "start_time": "2025-11-12T10:58:22.205Z",
    "end_time": "2025-11-12T11:05:36.214Z",
    "trial": 30,
    "sentence": "Ich schenke dir eine Blume",
    "condition": "simple_non_ambiguous",
    "expected": "grammatical",
    "response": "grammatical",
    "response_time": 8663,
    "correct": true
  },
  {
    "participant_id": "PMHVVZURGHOMH",
    "language_group": "pt",
    "german_level": "B2",
    "learning_duration": "1_to_2_years",
    "start_time": "2025-11-12T10:58:22.205Z",
    "end_time": "2025-11-12T11:05:36.214Z",
    "trial": 31,
    "sentence": "Ich rufe dich an, sobald ich habe Zeit",
    "condition": "complex_ambiguous",
    "expected": "ungrammatical",
    "response": "grammatical",
    "response_time": 3314,
    "correct": false
  },
  {
    "participant_id": "PMHVVZURGHOMH",
    "language_group": "pt",
    "german_level": "B2",
    "learning_duration": "1_to_2_years",
    "start_time": "2025-11-12T10:58:22.205Z",
    "end_time": "2025-11-12T11:05:36.214Z",
    "trial": 32,
    "sentence": "Ich erkläre es, damit er es versteht",
    "condition": "complex_non_ambiguous",
    "expected": "grammatical",
    "response": "grammatical",
    "response_time": 8342,
    "correct": true
  },
  {
    "participant_id": "PMHVVZURGHOMH",
    "language_group": "pt",
    "german_level": "B2",
    "learning_duration": "1_to_2_years",
    "start_time": "2025-11-12T10:58:22.205Z",
    "end_time": "2025-11-12T11:05:36.214Z",
    "trial": 34,
    "sentence": "Sie liebt er",
    "condition": "simple_ambiguous",
    "expected": "ungrammatical",
    "response": "ungrammatical",
    "response_time": 8109,
    "correct": true
  },
  {
    "participant_id": "PMHVVZURGHOMH",
    "language_group": "pt",
    "german_level": "B2",
    "learning_duration": "1_to_2_years",
    "start_time": "2025-11-12T10:58:22.205Z",
    "end_time": "2025-11-12T11:05:36.214Z",
    "trial": 35,
    "sentence": "Ich schenke dich eine Blume",
    "condition": "simple_ambiguous",
    "expected": "ungrammatical",
    "response": "ungrammatical",
    "response_time": 3024,
    "correct": true
  },
  {
    "participant_id": "PMHVVZURGHOMH",
    "language_group": "pt",
    "german_level": "B2",
    "learning_duration": "1_to_2_years",
    "start_time": "2025-11-12T10:58:22.205Z",
    "end_time": "2025-11-12T11:05:36.214Z",
    "trial": 36,
    "sentence": "Wir fahren in Urlaub, nachdem wir haben gespart",
    "condition": "complex_ambiguous",
    "expected": "ungrammatical",
    "response": "ungrammatical",
    "response_time": 6431,
    "correct": true
  },
  {
    "participant_id": "PMHVVZURGHOMH",
    "language_group": "pt",
    "german_level": "B2",
    "learning_duration": "1_to_2_years",
    "start_time": "2025-11-12T10:58:22.205Z",
    "end_time": "2025-11-12T11:05:36.214Z",
    "trial": 39,
    "sentence": "Er trinkt, weil er Durst hat",
    "condition": "complex_non_ambiguous",
    "expected": "grammatical",
    "response": "grammatical",
    "response_time": 5896,
    "correct": true
  },
  {
    "participant_id": "PMHVVZURGHOMH",
    "language_group": "pt",
    "german_level": "B2",
    "learning_duration": "1_to_2_years",
    "start_time": "2025-11-12T10:58:22.205Z",
    "end_time": "2025-11-12T11:05:36.214Z",
    "trial": 40,
    "sentence": "Du räumst dein Zimmer auf",
    "condition": "simple_non_ambiguous",
    "expected": "grammatical",
    "response": "grammatical",
    "response_time": 6593,
    "correct": true
  },
  {
    "participant_id": "PMHVVZURGHOMH",
    "language_group": "pt",
    "german_level": "B2",
    "learning_duration": "1_to_2_years",
    "start_time": "2025-11-12T10:58:22.205Z",
    "end_time": "2025-11-12T11:05:36.214Z",
    "trial": 41,
    "sentence": "Den Kater jagt der Hund",
    "condition": "simple_ambiguous",
    "expected": "grammatical",
    "response": "grammatical",
    "response_time": 7264,
    "correct": true
  },
  {
    "participant_id": "PMHVVZURGHOMH",
    "language_group": "pt",
    "german_level": "B2",
    "learning_duration": "1_to_2_years",
    "start_time": "2025-11-12T10:58:22.205Z",
    "end_time": "2025-11-12T11:05:36.214Z",
    "trial": 42,
    "sentence": "Mach das Licht an",
    "condition": "simple_non_ambiguous",
    "expected": "grammatical",
    "response": "grammatical",
    "response_time": 2889,
    "correct": true
  },
  {
    "participant_id": "PMHW0W0VRJK3B",
    "language_group": "pt",
    "german_level": "C1",
    "learning_duration": "2_to_5_years",
    "start_time": "2025-11-12T13:15:21.592Z",
    "end_time": "2025-11-12T13:22:19.757Z",
    "trial": 1,
    "sentence": "Ich gebe ihm das Buch",
    "condition": "simple_non_ambiguous",
    "expected": "grammatical",
    "response": "grammatical",
    "response_time": 2608,
    "correct": true
  },
  {
    "participant_id": "PMHW0W0VRJK3B",
    "language_group": "pt",
    "german_level": "C1",
    "learning_duration": "2_to_5_years",
    "start_time": "2025-11-12T13:15:21.592Z",
    "end_time": "2025-11-12T13:22:19.757Z",
    "trial": 2,
    "sentence": "Sie zeigt mich den Weg",
    "condition": "simple_ambiguous",
    "expected": "ungrammatical",
    "response": "ungrammatical",
    "response_time": 5849,
    "correct": true
  },
  {
    "participant_id": "PMHW0W0VRJK3B",
    "language_group": "pt",
    "german_level": "C1",
    "learning_duration": "2_to_5_years",
    "start_time": "2025-11-12T13:15:21.592Z",
    "end_time": "2025-11-12T13:22:19.757Z",
    "trial": 3,
    "sentence": "Sie ankommen morgen",
    "condition": "simple_ambiguous",
    "expected": "ungrammatical",
    "response": "ungrammatical",
    "response_time": 4158,
    "correct": true
  },
  {
    "participant_id": "PMHW0W0VRJK3B",
    "language_group": "pt",
    "german_level": "C1",
    "learning_duration": "2_to_5_years",
    "start_time": "2025-11-12T13:15:21.592Z",
    "end_time": "2025-11-12T13:22:19.757Z",
    "trial": 5,
    "sentence": "Er sieht mir",
    "condition": "simple_ambiguous",
    "expected": "ungrammatical",
    "response": "ungrammatical",
    "response_time": 4075,
    "correct": true
  },
  {
    "participant_id": "PMHW0W0VRJK3B",
    "language_group": "pt",
    "german_level": "C1",
    "learning_duration": "2_to_5_years",
    "start_time": "2025-11-12T13:15:21.592Z",
    "end_time": "2025-11-12T13:22:19.757Z",
    "trial": 6,
    "sentence": "Er anruft mich jeden Sonntag",
    "condition": "simple_ambiguous",
    "expected": "ungrammatical",
    "response": "ungrammatical",
    "response_time": 2637,
    "correct": true
  },
  {
    "participant_id": "PMHW0W0VRJK3B",
    "language_group": "pt",
    "german_level": "C1",
    "learning_duration": "2_to_5_years",
    "start_time": "2025-11-12T13:15:21.592Z",
    "end_time": "2025-11-12T13:22:19.757Z",
    "trial": 7,
    "sentence": "Die Großmutter hat die Schokolade gegessen",
    "condition": "simple_non_ambiguous",
    "expected": "grammatical",
    "response": "grammatical",
    "response_time": 3741,
    "correct": true
  },
  {
    "participant_id": "PMHW0W0VRJK3B",
    "language_group": "pt",
    "german_level": "C1",
    "learning_duration": "2_to_5_years",
    "start_time": "2025-11-12T13:15:21.592Z",
    "end_time": "2025-11-12T13:22:19.757Z",
    "trial": 8,
    "sentence": "Wir geben sie die Schlüssel",
    "condition": "simple_ambiguous",
    "expected": "ungrammatical",
    "response": "ungrammatical",
    "response_time": 3562,
    "correct": true
  },
  {
    "participant_id": "PMHW0W0VRJK3B",
    "language_group": "pt",
    "german_level": "C1",
    "learning_duration": "2_to_5_years",
    "start_time": "2025-11-12T13:15:21.592Z",
    "end_time": "2025-11-12T13:22:19.757Z",
    "trial": 9,
    "sentence": "Ich schenke dich eine Blume",
    "condition": "simple_ambiguous",
    "expected": "ungrammatical",
    "response": "ungrammatical",
    "response_time": 2741,
    "correct": true
  },
  {
    "participant_id": "PMHW0W0VRJK3B",
    "language_group": "pt",
    "german_level": "C1",
    "learning_duration": "2_to_5_years",
    "start_time": "2025-11-12T13:15:21.592Z",
    "end_time": "2025-11-12T13:22:19.757Z",
    "trial": 10,
    "sentence": "Ich kann nicht einschlafen",
    "condition": "simple_non_ambiguous",
    "expected": "grammatical",
    "response": "grammatical",
    "response_time": 3141,
    "correct": true
  },
  {
    "participant_id": "PMHW0W0VRJK3B",
    "language_group": "pt",
    "german_level": "C1",
    "learning_duration": "2_to_5_years",
    "start_time": "2025-11-12T13:15:21.592Z",
    "end_time": "2025-11-12T13:22:19.757Z",
    "trial": 11,
    "sentence": "Er bringt sie die Zeitung",
    "condition": "simple_ambiguous",
    "expected": "ungrammatical",
    "response": "ungrammatical",
    "response_time": 4682,
    "correct": true
  },
  {
    "participant_id": "PMHW0W0VRJK3B",
    "language_group": "pt",
    "german_level": "C1",
    "learning_duration": "2_to_5_years",
    "start_time": "2025-11-12T13:15:21.592Z",
    "end_time": "2025-11-12T13:22:19.757Z",
    "trial": 12,
    "sentence": "Ich aufstehe jeden Tag um sieben Uhr",
    "condition": "simple_ambiguous",
    "expected": "ungrammatical",
    "response": "ungrammatical",
    "response_time": 3931,
    "correct": true
  },
  {
    "participant_id": "PMHW0W0VRJK3B",
    "language_group": "pt",
    "german_level": "C1",
    "learning_duration": "2_to_5_years",
    "start_time": "2025-11-12T13:15:21.592Z",
    "end_time": "2025-11-12T13:22:19.757Z",
    "trial": 13,
    "sentence": "Im Park spielen die Kinder Fußball",
    "condition": "simple_non_ambiguous",
    "expected": "grammatical",
    "response": "grammatical",
    "response_time": 3217,
    "correct": true
  },
  {
    "participant_id": "PMHW0W0VRJK3B",
    "language_group": "pt",
    "german_level": "C1",
    "learning_duration": "2_to_5_years",
    "start_time": "2025-11-12T13:15:21.592Z",
    "end_time": "2025-11-12T13:22:19.757Z",
    "trial": 14,
    "sentence": "Langsam fährt das Auto die Straße entlang",
    "condition": "simple_non_ambiguous",
    "expected": "grammatical",
    "response": "grammatical",
    "response_time": 6323,
    "correct": true
  },
  {
    "participant_id": "PMHW0W0VRJK3B",
    "language_group": "pt",
    "german_level": "C1",
    "learning_duration": "2_to_5_years",
    "start_time": "2025-11-12T13:15:21.592Z",
    "end_time": "2025-11-12T13:22:19.757Z",
    "trial": 15,
    "sentence": "Du räumst dein Zimmer auf",
    "condition": "simple_non_ambiguous",
    "expected": "grammatical",
    "response": "grammatical",
    "response_time": 3373,
    "correct": true
  },
  {
    "participant_id": "PMHW0W0VRJK3B",
    "language_group": "pt",
    "german_level": "C1",
    "learning_duration": "2_to_5_years",
    "start_time": "2025-11-12T13:15:21.592Z",
    "end_time": "2025-11-12T13:22:19.757Z",
    "trial": 16,
    "sentence": "Wann kommst du in Berlin an?",
    "condition": "simple_non_ambiguous",
    "expected": "grammatical",
    "response": "grammatical",
    "response_time": 3805,
    "correct": true
  },
  {
    "participant_id": "PMHW0W0VRJK3B",
    "language_group": "pt",
    "german_level": "C1",
    "learning_duration": "2_to_5_years",
    "start_time": "2025-11-12T13:15:21.592Z",
    "end_time": "2025-11-12T13:22:19.757Z",
    "trial": 17,
    "sentence": "Sie lernt Deutsch, seit sie wohnt in Berlin",
    "condition": "complex_ambiguous",
    "expected": "ungrammatical",
    "response": "ungrammatical",
    "response_time": 5164,
    "correct": true
  },
  {
    "participant_id": "PMHW0W0VRJK3B",
    "language_group": "pt",
    "german_level": "C1",
    "learning_duration": "2_to_5_years",
    "start_time": "2025-11-12T13:15:21.592Z",
    "end_time": "2025-11-12T13:22:19.757Z",
    "trial": 18,
    "sentence": "Wir wissen nicht, ob er bei der Prüfung betrogen hat.",
    "condition": "complex_non_ambiguous",
    "expected": "grammatical",
    "response": "grammatical",
    "response_time": 6210,
    "correct": true
  },
  {
    "participant_id": "PMHW0W0VRJK3B",
    "language_group": "pt",
    "german_level": "C1",
    "learning_duration": "2_to_5_years",
    "start_time": "2025-11-12T13:15:21.592Z",
    "end_time": "2025-11-12T13:22:19.757Z",
    "trial": 19,
    "sentence": "Wir geben ihr die Schlüssel",
    "condition": "simple_non_ambiguous",
    "expected": "grammatical",
    "response": "grammatical",
    "response_time": 3140,
    "correct": true
  },
  {
    "participant_id": "PMHW0W0VRJK3B",
    "language_group": "pt",
    "german_level": "C1",
    "learning_duration": "2_to_5_years",
    "start_time": "2025-11-12T13:15:21.592Z",
    "end_time": "2025-11-12T13:22:19.757Z",
    "trial": 20,
    "sentence": "Ich gehe raus, obwohl das Wetter schlecht ist.",
    "condition": "complex_non_ambiguous",
    "expected": "grammatical",
    "response": "grammatical",
    "response_time": 2911,
    "correct": true
  },
  {
    "participant_id": "PMHW0W0VRJK3B",
    "language_group": "pt",
    "german_level": "C1",
    "learning_duration": "2_to_5_years",
    "start_time": "2025-11-12T13:15:21.592Z",
    "end_time": "2025-11-12T13:22:19.757Z",
    "trial": 21,
    "sentence": "Mach das Licht an",
    "condition": "simple_non_ambiguous",
    "expected": "grammatical",
    "response": "grammatical",
    "response_time": 1827,
    "correct": true
  },
  {
    "participant_id": "PMHW0W0VRJK3B",
    "language_group": "pt",
    "german_level": "C1",
    "learning_duration": "2_to_5_years",
    "start_time": "2025-11-12T13:15:21.592Z",
    "end_time": "2025-11-12T13:22:19.757Z",
    "trial": 23,
    "sentence": "Ich schenke dir eine Blume",
    "condition": "simple_non_ambiguous",
    "expected": "grammatical",
    "response": "grammatical",
    "response_time": 3064,
    "correct": true
  },
  {
    "participant_id": "PMHW0W0VRJK3B",
    "language_group": "pt",
    "german_level": "C1",
    "learning_duration": "2_to_5_years",
    "start_time": "2025-11-12T13:15:21.592Z",
    "end_time": "2025-11-12T13:22:19.757Z",
    "trial": 25,
    "sentence": "Er ist müde, weil er hat spät ins Bett gegangen",
    "condition": "complex_ambiguous",
    "expected": "ungrammatical",
    "response": "ungrammatical",
    "response_time": 3150,
    "correct": true
  },
  {
    "participant_id": "PMHW0W0VRJK3B",
    "language_group": "pt",
    "german_level": "C1",
    "learning_duration": "2_to_5_years",
    "start_time": "2025-11-12T13:15:21.592Z",
    "end_time": "2025-11-12T13:22:19.757Z",
    "trial": 27,
    "sentence": "Ich verstehe, dass du mitkommen willst",
    "condition": "complex_non_ambiguous",
    "expected": "grammatical",
    "response": "grammatical",
    "response_time": 4105,
    "correct": true
  },
  {
    "participant_id": "PMHW0W0VRJK3B",
    "language_group": "pt",
    "german_level": "C1",
    "learning_duration": "2_to_5_years",
    "start_time": "2025-11-12T13:15:21.592Z",
    "end_time": "2025-11-12T13:22:19.757Z",
    "trial": 29,
    "sentence": "Sie kommen morgen an",
    "condition": "simple_non_ambiguous",
    "expected": "grammatical",
    "response": "grammatical",
    "response_time": 2456,
    "correct": true
  },
  {
    "participant_id": "PMHW0W0VRJK3B",
    "language_group": "pt",
    "german_level": "C1",
    "learning_duration": "2_to_5_years",
    "start_time": "2025-11-12T13:15:21.592Z",
    "end_time": "2025-11-12T13:22:19.757Z",
    "trial": 30,
    "sentence": "Sie liebt er",
    "condition": "simple_ambiguous",
    "expected": "ungrammatical",
    "response": "ungrammatical",
    "response_time": 1905,
    "correct": true
  },
  {
    "participant_id": "PMHW0W0VRJK3B",
    "language_group": "pt",
    "german_level": "C1",
    "learning_duration": "2_to_5_years",
    "start_time": "2025-11-12T13:15:21.592Z",
    "end_time": "2025-11-12T13:22:19.757Z",
    "trial": 31,
    "sentence": "Er sieht mich",
    "condition": "simple_non_ambiguous",
    "expected": "grammatical",
    "response": "grammatical",
    "response_time": 3008,
    "correct": true
  },
  {
    "participant_id": "PMHW0W0VRJK3B",
    "language_group": "pt",
    "german_level": "C1",
    "learning_duration": "2_to_5_years",
    "start_time": "2025-11-12T13:15:21.592Z",
    "end_time": "2025-11-12T13:22:19.757Z",
    "trial": 32,
    "sentence": "Sie macht das Fenster auf",
    "condition": "simple_non_ambiguous",
    "expected": "grammatical",
    "response": "grammatical",
    "response_time": 4258,
    "correct": true
  },
  {
    "participant_id": "PMHW0W0VRJK3B",
    "language_group": "pt",
    "german_level": "C1",
    "learning_duration": "2_to_5_years",
    "start_time": "2025-11-12T13:15:21.592Z",
    "end_time": "2025-11-12T13:22:19.757Z",
    "trial": 33,
    "sentence": "Sie aufmacht das Fenster",
    "condition": "simple_ambiguous",
    "expected": "ungrammatical",
    "response": "ungrammatical",
    "response_time": 1481,
    "correct": true
  },
  {
