{
  "importedData": [
    {
      "name": "Participant PMK8FE11WX5I4 - Database",
      "size": 10139,
      "lastModified": 1768143596185,
      "data": {
        "participant": {
          "id": "PMK8FE11WX5I4",
          "languageGroup": "pt",
          "germanLevel": "A2",
          "learningDuration": null,
          "startTime": "2026-01-10T14:53:55.028Z"
        },
        "experiment": {
          "config": {},
          "endTime": "2026-01-10T15:04:36.268Z",
          "data": [
            {
              "trial": 1,
              "sentence": "Er bringt sie die Zeitung",
              "condition": "simple_ambiguous",
              "expected": "ungrammatical",
              "response": "ungrammatical",
              "responseTime": 7240,
              "correct": true
            },
            {
              "trial": 2,
              "sentence": "Sie lachen, denn sie sind glücklich",
              "condition": "complex_non_ambiguous",
              "expected": "grammatical",
              "response": "grammatical",
              "responseTime": 7697,
              "correct": true
            },
            {
              "trial": 3,
              "sentence": "Er ruft mich jeden Sonntag an",
              "condition": "simple_non_ambiguous",
              "expected": "grammatical",
              "response": "grammatical",
              "responseTime": 7637,
              "correct": true
            },
            {
              "trial": 4,
              "sentence": "Mit viel Freude hat die Großmutter die Schokolade gegessen",
              "condition": "simple_non_ambiguous",
              "expected": "grammatical",
              "response": "grammatical",
              "responseTime": 5818,
              "correct": true
            },
            {
              "trial": 5,
              "sentence": "Langsam fährt das Auto die Straße entlang",
              "condition": "simple_non_ambiguous",
              "expected": "grammatical",
              "response": "grammatical",
              "responseTime": 7382,
              "correct": true
            },
            {
              "trial": 6,
              "sentence": "Sie liebt ihn",
              "condition": "simple_non_ambiguous",
              "expected": "grammatical",
              "response": "ungrammatical",
              "responseTime": 6469,
              "correct": false
            },
            {
              "trial": 7,
              "sentence": "Den Alien erschreckt das Kind",
              "condition": "simple_ambiguous",
              "expected": "grammatical",
              "response": "ungrammatical",
              "responseTime": 6853,
              "correct": false
            },
            {
              "trial": 8,
              "sentence": "Ich aufstehe jeden Tag um sieben Uhr",
              "condition": "simple_ambiguous",
              "expected": "ungrammatical",
              "response": "grammatical",
              "responseTime": 6036,
              "correct": false
            },
            {
              "trial": 9,
              "sentence": "Ich kann nicht einschlafen",
              "condition": "simple_non_ambiguous",
              "expected": "grammatical",
              "response": "ungrammatical",
              "responseTime": 5620,
              "correct": false
            },
            {
              "trial": 10,
              "sentence": "Sie liebt er",
              "condition": "simple_ambiguous",
              "expected": "ungrammatical",
              "response": "ungrammatical",
              "responseTime": 6103,
              "correct": true
            },
            {
              "trial": 11,
              "sentence": "Sie kommt nicht, da sie ist sehr krank",
              "condition": "complex_ambiguous",
              "expected": "ungrammatical",
              "response": "ungrammatical",
              "responseTime": 3009,
              "correct": true
            },
            {
              "trial": 12,
              "sentence": "Du räumst dein Zimmer auf",
              "condition": "simple_non_ambiguous",
              "expected": "grammatical",
              "response": "grammatical",
              "responseTime": 5755,
              "correct": true
            },
            {
              "trial": 13,
              "sentence": "Sie aufmacht das Fenster",
              "condition": "simple_ambiguous",
              "expected": "ungrammatical",
              "response": "ungrammatical",
              "responseTime": 5810,
              "correct": true
            },
            {
              "trial": 14,
              "sentence": "Den Kater jagt der Hund",
              "condition": "simple_ambiguous",
              "expected": "grammatical",
              "response": "ungrammatical",
              "responseTime": 7416,
              "correct": false
            },
            {
              "trial": 15,
              "sentence": "Ich höre dir",
              "condition": "simple_ambiguous",
              "expected": "ungrammatical",
              "response": "grammatical",
              "responseTime": 5987,
              "correct": false
            },
            {
              "trial": 16,
              "sentence": "Sie zeigt mich den Weg",
              "condition": "simple_ambiguous",
              "expected": "ungrammatical",
              "response": "grammatical",
              "responseTime": 5732,
              "correct": false
            },
            {
              "trial": 17,
              "sentence": "Mach das Licht an",
              "condition": "simple_non_ambiguous",
              "expected": "grammatical",
              "response": "grammatical",
              "responseTime": 5621,
              "correct": true
            },
            {
              "trial": 18,
              "sentence": "Wir geben ihr die Schlüssel",
              "condition": "simple_non_ambiguous",
              "expected": "grammatical",
              "response": "ungrammatical",
              "responseTime": 6642,
              "correct": false
            },
            {
              "trial": 19,
              "sentence": "Ich gebe ihm das Buch",
              "condition": "simple_non_ambiguous",
              "expected": "grammatical",
              "response": "ungrammatical",
              "responseTime": 6058,
              "correct": false
            },
            {
              "trial": 20,
              "sentence": "Wann kommst du in Berlin an?",
              "condition": "simple_non_ambiguous",
              "expected": "grammatical",
              "response": "grammatical",
              "responseTime": 6049,
              "correct": true
            },
            {
              "trial": 21,
              "sentence": "sie steht jeden Tag um sechs Uhr auf",
              "condition": "simple_non_ambiguous",
              "expected": "grammatical",
              "response": "grammatical",
              "responseTime": 5686,
              "correct": true
            },
            {
              "trial": 22,
              "sentence": "Ihr seid eingeladen, wenn Ihr Zeit habt",
              "condition": "complex_non_ambiguous",
              "expected": "grammatical",
              "response": "grammatical",
              "responseTime": 7168,
              "correct": true
            },
            {
              "trial": 23,
              "sentence": "Er ist müde, weil er hat spät ins Bett gegangen",
              "condition": "complex_ambiguous",
              "expected": "ungrammatical",
              "response": "ungrammatical",
              "responseTime": 3873,
              "correct": true
            },
            {
              "trial": 24,
              "sentence": "Ich erkläre es, damit er es versteht",
              "condition": "complex_non_ambiguous",
              "expected": "grammatical",
              "response": "grammatical",
              "responseTime": 6615,
              "correct": true
            },
            {
              "trial": 25,
              "sentence": "Sie zeigt mir den Weg",
              "condition": "simple_non_ambiguous",
              "expected": "grammatical",
              "response": "ungrammatical",
              "responseTime": 5029,
              "correct": false
            },
            {
              "trial": 26,
              "sentence": "Sie macht das Fenster auf",
              "condition": "simple_non_ambiguous",
              "expected": "grammatical",
              "response": "ungrammatical",
              "responseTime": 5392,
              "correct": false
            },
            {
              "trial": 27,
              "sentence": "Wir wissen nicht, ob er bei der Prüfung betrogen hat.",
              "condition": "complex_non_ambiguous",
              "expected": "grammatical",
              "response": "grammatical",
              "responseTime": 5596,
              "correct": true
            },
            {
              "trial": 28,
              "sentence": "Mach an das Licht!",
              "condition": "simple_ambiguous",
              "expected": "ungrammatical",
              "response": "grammatical",
              "responseTime": 5684,
              "correct": false
            },
            {
              "trial": 29,
              "sentence": "Er trinkt, weil er Durst hat",
              "condition": "complex_non_ambiguous",
              "expected": "grammatical",
              "response": "grammatical",
              "responseTime": 5572,
              "correct": true
            },
            {
              "trial": 30,
              "sentence": "Er anruft mich jeden Sonntag",
              "condition": "simple_ambiguous",
              "expected": "ungrammatical",
              "response": "ungrammatical",
              "responseTime": 4654,
              "correct": true
            },
            {
              "trial": 31,
              "sentence": "Ich höre euch",
              "condition": "simple_non_ambiguous",
              "expected": "grammatical",
              "response": "grammatical",
              "responseTime": 5125,
              "correct": true
            },
            {
              "trial": 32,
              "sentence": "Ich kann nicht schlafen ein.",
              "condition": "simple_ambiguous",
              "expected": "ungrammatical",
              "response": "ungrammatical",
              "responseTime": 6924,
              "correct": true
            },
            {
              "trial": 33,
              "sentence": "Er bleibt zu Hause, während seine arbeitet Frau",
              "condition": "complex_ambiguous",
              "expected": "ungrammatical",
              "response": "ungrammatical",
              "responseTime": 4035,
              "correct": true
            },
            {
              "trial": 34,
              "sentence": "Sie kommen morgen an",
              "condition": "simple_non_ambiguous",
              "expected": "grammatical",
              "response": "ungrammatical",
              "responseTime": 5771,
              "correct": false
            },
            {
              "trial": 35,
              "sentence": "Ich gehe raus, obwohl das Wetter schlecht ist.",
              "condition": "complex_non_ambiguous",
              "expected": "grammatical",
              "response": "ungrammatical",
              "responseTime": 7412,
              "correct": false
            },
            {
              "trial": 36,
              "sentence": "Ich schenke dir eine Blume",
              "condition": "simple_non_ambiguous",
              "expected": "grammatical",
              "response": "ungrammatical",
              "responseTime": 4035,
              "correct": false
            },
            {
              "trial": 37,
              "sentence": "Wir geben sie die Schlüssel",
              "condition": "simple_ambiguous",
              "expected": "ungrammatical",
              "response": "ungrammatical",
              "responseTime": 5723,
              "correct": true
            },
            {
              "trial": 38,
              "sentence": "Sie lernt Deutsch, seit sie wohnt in Berlin",
              "condition": "complex_ambiguous",
              "expected": "ungrammatical",
              "response": "grammatical",
              "responseTime": 3264,
              "correct": false
            },
            {
              "trial": 39,
              "sentence": "Er kauft Blumen, bevor er geht nach Hause",
              "condition": "complex_ambiguous",
              "expected": "ungrammatical",
              "response": "grammatical",
              "responseTime": 2177,
              "correct": false
            },
            {
              "trial": 40,
              "sentence": "Er sieht mich",
              "condition": "simple_non_ambiguous",
              "expected": "grammatical",
              "response": "grammatical",
              "responseTime": 4600,
              "correct": true
            },
            {
              "trial": 41,
              "sentence": "Ich schenke dich eine Blume",
              "condition": "simple_ambiguous",
              "expected": "ungrammatical",
              "response": "grammatical",
              "responseTime": 5086,
              "correct": false
            },
            {
              "trial": 42,
              "sentence": "Wir fahren in Urlaub, nachdem wir haben gespart",
              "condition": "complex_ambiguous",
              "expected": "ungrammatical",
              "response": "ungrammatical",
              "responseTime": 4812,
              "correct": true
            },
            {
              "trial": 43,
              "sentence": "Ich rufe dich an, sobald ich habe Zeit",
              "condition": "complex_ambiguous",
              "expected": "ungrammatical",
              "response": "grammatical",
              "responseTime": 4675,
              "correct": false
            },
            {
              "trial": 44,
              "sentence": "Sie ankommen morgen",
              "condition": "simple_ambiguous",
              "expected": "ungrammatical",
              "response": "grammatical",
              "responseTime": 6628,
              "correct": false
            },
            {
              "trial": 45,
              "sentence": "Wann ankommst du in Berlin?",
              "condition": "simple_ambiguous",
              "expected": "ungrammatical",
              "response": "grammatical",
              "responseTime": 5146,
              "correct": false
            },
            {
              "trial": 46,
              "sentence": "Wir bleiben drinnen, falls es regnet heute",
              "condition": "complex_non_ambiguous",
              "expected": "ungrammatical",
              "response": "grammatical",
              "responseTime": 7279,
              "correct": false
            },
            {
              "trial": 47,
              "sentence": "Er schläft, da er müde ist.",
              "condition": "complex_non_ambiguous",
              "expected": "grammatical",
              "response": "grammatical",
              "responseTime": 5670,
              "correct": true
            },
            {
              "trial": 48,
              "sentence": "Er bringt ihnen die Zeitung",
              "condition": "simple_non_ambiguous",
              "expected": "grammatical",
              "response": "ungrammatical",
              "responseTime": 3988,
              "correct": false
            },
            {
              "trial": 49,
              "sentence": "Ich gebe er das Buch",
              "condition": "simple_ambiguous",
              "expected": "ungrammatical",
              "response": "grammatical",
              "responseTime": 4406,
              "correct": false
            },
            {
              "trial": 50,
              "sentence": "Den Ball jagt der Hund im Garten",
              "condition": "simple_ambiguous",
              "expected": "grammatical",
              "response": "ungrammatical",
              "responseTime": 3927,
              "correct": false
            },
            {
              "trial": 51,
              "sentence": "Der Spielerin gibt das Kind den Ball",
              "condition": "simple_ambiguous",
              "expected": "grammatical",
              "response": "grammatical",
              "responseTime": 3997,
              "correct": true
            },
            {
              "trial": 52,
              "sentence": "Ich verstehe, dass du mitkommen willst",
              "condition": "complex_non_ambiguous",
              "expected": "grammatical",
              "response": "ungrammatical",
              "responseTime": 5493,
              "correct": false
            },
            {
              "trial": 53,
              "sentence": "Die Großmutter hat die Schokolade gegessen",
              "condition": "simple_non_ambiguous",
              "expected": "grammatical",
              "response": "grammatical",
              "responseTime": 3930,
              "correct": true
            },
            {
              "trial": 54,
              "sentence": "Im Park spielen die Kinder Fußball",
              "condition": "simple_non_ambiguous",
              "expected": "grammatical",
              "response": "grammatical",
              "responseTime": 5244,
              "correct": true
            },
            {
              "trial": 55,
              "sentence": "Er sieht mir",
              "condition": "simple_ambiguous",
              "expected": "ungrammatical",
              "response": "ungrammatical",
              "responseTime": 3329,
              "correct": true
            },
            {
              "trial": 56,
              "sentence": "du aufräumst dein Zimmer.",
              "condition": "simple_ambiguous",
              "expected": "ungrammatical",
              "response": "grammatical",
              "responseTime": 3474,
              "correct": false
            }
          ]
        }
      }
    },
    {
      "name": "Participant PMK8FE1222V3W - Database",
      "size": 10125,
      "lastModified": 1768143596185,
      "data": {
        "participant": {
          "id": "PMK8FE1222V3W",
          "languageGroup": "pt",
          "germanLevel": "A2",
          "learningDuration": null,
          "startTime": "2026-01-10T14:53:55.034Z"
        },
        "experiment": {
          "config": {},
          "endTime": "2026-01-10T15:04:07.168Z",
          "data": [
            {
              "trial": 1,
              "sentence": "Wir geben sie die Schlüssel",
              "condition": "simple_ambiguous",
              "expected": "ungrammatical",
              "response": "ungrammatical",
              "responseTime": 2285,
              "correct": true
            },
            {
              "trial": 2,
              "sentence": "Wir fahren in Urlaub, nachdem wir haben gespart",
              "condition": "complex_ambiguous",
              "expected": "ungrammatical",
              "response": "grammatical",
              "responseTime": 7605,
              "correct": false
            },
            {
              "trial": 3,
              "sentence": "Du räumst dein Zimmer auf",
              "condition": "simple_non_ambiguous",
              "expected": "grammatical",
              "response": "grammatical",
              "responseTime": 4587,
              "correct": true
            },
            {
              "trial": 4,
              "sentence": "Sie kommt nicht, da sie ist sehr krank",
              "condition": "complex_ambiguous",
              "expected": "ungrammatical",
              "response": "grammatical",
              "responseTime": 7920,
              "correct": false
            },
            {
              "trial": 5,
              "sentence": "Sie liebt ihn",
              "condition": "simple_non_ambiguous",
              "expected": "grammatical",
              "response": "ungrammatical",
              "responseTime": 5455,
              "correct": false
            },
            {
              "trial": 6,
              "sentence": "Ich erkläre es, damit er es versteht",
              "condition": "complex_non_ambiguous",
              "expected": "grammatical",
              "response": "ungrammatical",
              "responseTime": 5264,
              "correct": false
            },
            {
              "trial": 7,
              "sentence": "Ich aufstehe jeden Tag um sieben Uhr",
              "condition": "simple_ambiguous",
              "expected": "ungrammatical",
              "response": "grammatical",
              "responseTime": 2670,
              "correct": false
            },
            {
              "trial": 8,
              "sentence": "Er sieht mir",
              "condition": "simple_ambiguous",
              "expected": "ungrammatical",
              "response": "ungrammatical",
              "responseTime": 3591,
              "correct": true
            },
            {
              "trial": 9,
              "sentence": "Er bringt ihnen die Zeitung",
              "condition": "simple_non_ambiguous",
              "expected": "grammatical",
              "response": "grammatical",
              "responseTime": 5709,
              "correct": true
            },
            {
              "trial": 10,
              "sentence": "Ich höre euch",
              "condition": "simple_non_ambiguous",
              "expected": "grammatical",
              "response": "grammatical",
              "responseTime": 5862,
              "correct": true
            },
            {
              "trial": 11,
              "sentence": "Er ist müde, weil er hat spät ins Bett gegangen",
              "condition": "complex_ambiguous",
              "expected": "ungrammatical",
              "response": "ungrammatical",
              "responseTime": 6947,
              "correct": true
            },
            {
              "trial": 12,
              "sentence": "Im Park spielen die Kinder Fußball",
              "condition": "simple_non_ambiguous",
              "expected": "grammatical",
              "response": "grammatical",
              "responseTime": 5964,
              "correct": true
            },
            {
              "trial": 13,
              "sentence": "Sie liebt er",
              "condition": "simple_ambiguous",
              "expected": "ungrammatical",
              "response": "grammatical",
              "responseTime": 2395,
              "correct": false
            },
            {
              "trial": 14,
              "sentence": "Ich gehe raus, obwohl das Wetter schlecht ist.",
              "condition": "complex_non_ambiguous",
              "expected": "grammatical",
              "response": "grammatical",
              "responseTime": 5898,
              "correct": true
            },
            {
              "trial": 15,
              "sentence": "Mach das Licht an",
              "condition": "simple_non_ambiguous",
              "expected": "grammatical",
              "response": "ungrammatical",
              "responseTime": 5993,
              "correct": false
            },
            {
              "trial": 16,
              "sentence": "Den Ball jagt der Hund im Garten",
              "condition": "simple_ambiguous",
              "expected": "grammatical",
              "response": "ungrammatical",
              "responseTime": 3518,
              "correct": false
            },
            {
              "trial": 17,
              "sentence": "Ich schenke dir eine Blume",
              "condition": "simple_non_ambiguous",
              "expected": "grammatical",
              "response": "ungrammatical",
              "responseTime": 6035,
              "correct": false
            },
            {
              "trial": 18,
              "sentence": "Er trinkt, weil er Durst hat",
              "condition": "complex_non_ambiguous",
              "expected": "grammatical",
              "response": "grammatical",
              "responseTime": 5348,
              "correct": true
            },
            {
              "trial": 19,
              "sentence": "Sie aufmacht das Fenster",
              "condition": "simple_ambiguous",
              "expected": "ungrammatical",
              "response": "grammatical",
              "responseTime": 2122,
              "correct": false
            },
            {
              "trial": 20,
              "sentence": "Wir geben ihr die Schlüssel",
              "condition": "simple_non_ambiguous",
              "expected": "grammatical",
              "response": "grammatical",
              "responseTime": 5872,
              "correct": true
            },
            {
              "trial": 21,
              "sentence": "Sie kommen morgen an",
              "condition": "simple_non_ambiguous",
              "expected": "grammatical",
              "response": "grammatical",
              "responseTime": 4690,
              "correct": true
            },
            {
              "trial": 22,
              "sentence": "Er ruft mich jeden Sonntag an",
              "condition": "simple_non_ambiguous",
              "expected": "grammatical",
              "response": "grammatical",
              "responseTime": 5376,
              "correct": true
            },
            {
              "trial": 23,
              "sentence": "Wann kommst du in Berlin an?",
              "condition": "simple_non_ambiguous",
              "expected": "grammatical",
              "response": "grammatical",
              "responseTime": 4483,
              "correct": true
            },
            {
              "trial": 24,
              "sentence": "Den Alien erschreckt das Kind",
              "condition": "simple_ambiguous",
              "expected": "grammatical",
              "response": "ungrammatical",
              "responseTime": 4184,
              "correct": false
            },
            {
              "trial": 25,
              "sentence": "Er bringt sie die Zeitung",
              "condition": "simple_ambiguous",
              "expected": "ungrammatical",
              "response": "ungrammatical",
              "responseTime": 2968,
              "correct": true
            },
            {
              "trial": 26,
              "sentence": "Der Spielerin gibt das Kind den Ball",
              "condition": "simple_ambiguous",
              "expected": "grammatical",
              "response": "grammatical",
              "responseTime": 3990,
              "correct": true
            },
            {
              "trial": 27,
              "sentence": "Sie macht das Fenster auf",
              "condition": "simple_non_ambiguous",
              "expected": "grammatical",
              "response": "ungrammatical",
              "responseTime": 4922,
              "correct": false
            },
            {
              "trial": 28,
              "sentence": "Er kauft Blumen, bevor er geht nach Hause",
              "condition": "complex_ambiguous",
              "expected": "ungrammatical",
              "response": "grammatical",
              "responseTime": 6218,
              "correct": false
            },
            {
              "trial": 29,
              "sentence": "Sie zeigt mir den Weg",
              "condition": "simple_non_ambiguous",
              "expected": "grammatical",
              "response": "grammatical",
              "responseTime": 4759,
              "correct": true
            },
            {
              "trial": 30,
              "sentence": "Mach an das Licht!",
              "condition": "simple_ambiguous",
              "expected": "ungrammatical",
              "response": "ungrammatical",
              "responseTime": 2847,
              "correct": true
            },
            {
              "trial": 31,
              "sentence": "Er bleibt zu Hause, während seine arbeitet Frau",
              "condition": "complex_ambiguous",
              "expected": "ungrammatical",
              "response": "ungrammatical",
              "responseTime": 6297,
              "correct": true
            },
            {
              "trial": 32,
              "sentence": "Den Kater jagt der Hund",
              "condition": "simple_ambiguous",
              "expected": "grammatical",
              "response": "grammatical",
              "responseTime": 4188,
              "correct": true
            },
            {
              "trial": 33,
              "sentence": "du aufräumst dein Zimmer.",
              "condition": "simple_ambiguous",
              "expected": "ungrammatical",
              "response": "ungrammatical",
              "responseTime": 4561,
              "correct": true
            },
            {
              "trial": 34,
              "sentence": "Er sieht mich",
              "condition": "simple_non_ambiguous",
              "expected": "grammatical",
              "response": "grammatical",
              "responseTime": 5422,
              "correct": true
            },
            {
              "trial": 35,
              "sentence": "Ihr seid eingeladen, wenn Ihr Zeit habt",
              "condition": "complex_non_ambiguous",
              "expected": "grammatical",
              "response": "ungrammatical",
              "responseTime": 6152,
              "correct": false
            },
            {
              "trial": 36,
              "sentence": "Sie zeigt mich den Weg",
              "condition": "simple_ambiguous",
              "expected": "ungrammatical",
              "response": "grammatical",
              "responseTime": 4587,
              "correct": false
            },
            {
              "trial": 37,
              "sentence": "Sie ankommen morgen",
              "condition": "simple_ambiguous",
              "expected": "ungrammatical",
              "response": "grammatical",
              "responseTime": 3278,
              "correct": false
            },
            {
              "trial": 38,
              "sentence": "Ich verstehe, dass du mitkommen willst",
              "condition": "complex_non_ambiguous",
              "expected": "grammatical",
              "response": "grammatical",
              "responseTime": 6678,
              "correct": true
            },
            {
              "trial": 39,
              "sentence": "Ich kann nicht einschlafen",
              "condition": "simple_non_ambiguous",
              "expected": "grammatical",
              "response": "grammatical",
              "responseTime": 5794,
              "correct": true
            },
            {
              "trial": 40,
              "sentence": "Sie lachen, denn sie sind glücklich",
              "condition": "complex_non_ambiguous",
              "expected": "grammatical",
              "response": "grammatical",
              "responseTime": 4779,
              "correct": true
            },
            {
              "trial": 41,
              "sentence": "Langsam fährt das Auto die Straße entlang",
              "condition": "simple_non_ambiguous",
              "expected": "grammatical",
              "response": "grammatical",
              "responseTime": 4634,
              "correct": true
            },
            {
              "trial": 42,
              "sentence": "sie steht jeden Tag um sechs Uhr auf",
              "condition": "simple_non_ambiguous",
              "expected": "grammatical",
              "response": "grammatical",
              "responseTime": 4841,
              "correct": true
            },
            {
              "trial": 43,
              "sentence": "Ich höre dir",
              "condition": "simple_ambiguous",
              "expected": "ungrammatical",
              "response": "grammatical",
              "responseTime": 3066,
              "correct": false
            },
            {
              "trial": 44,
              "sentence": "Ich schenke dich eine Blume",
              "condition": "simple_ambiguous",
              "expected": "ungrammatical",
              "response": "ungrammatical",
              "responseTime": 4973,
              "correct": true
            },
            {
              "trial": 45,
              "sentence": "Ich gebe ihm das Buch",
              "condition": "simple_non_ambiguous",
              "expected": "grammatical",
              "response": "grammatical",
              "responseTime": 4212,
              "correct": true
            },
            {
              "trial": 46,
              "sentence": "Ich kann nicht schlafen ein.",
              "condition": "simple_ambiguous",
              "expected": "ungrammatical",
              "response": "grammatical",
              "responseTime": 4586,
              "correct": false
            },
            {
              "trial": 47,
              "sentence": "Sie lernt Deutsch, seit sie wohnt in Berlin",
              "condition": "complex_ambiguous",
              "expected": "ungrammatical",
              "response": "ungrammatical",
              "responseTime": 5723,
              "correct": true
            },
            {
              "trial": 48,
              "sentence": "Ich gebe er das Buch",
              "condition": "simple_ambiguous",
              "expected": "ungrammatical",
              "response": "grammatical",
              "responseTime": 3092,
              "correct": false
            },
            {
              "trial": 49,
              "sentence": "Er anruft mich jeden Sonntag",
              "condition": "simple_ambiguous",
              "expected": "ungrammatical",
              "response": "grammatical",
              "responseTime": 4855,
              "correct": false
            },
            {
              "trial": 50,
              "sentence": "Wir bleiben drinnen, falls es regnet heute",
              "condition": "complex_non_ambiguous",
              "expected": "ungrammatical",
              "response": "ungrammatical",
              "responseTime": 6957,
              "correct": true
            },
            {
              "trial": 51,
              "sentence": "Er schläft, da er müde ist.",
              "condition": "complex_non_ambiguous",
              "expected": "grammatical",
              "response": "grammatical",
              "responseTime": 5463,
              "correct": true
            },
            {
              "trial": 52,
              "sentence": "Wann ankommst du in Berlin?",
              "condition": "simple_ambiguous",
              "expected": "ungrammatical",
              "response": "ungrammatical",
              "responseTime": 3095,
              "correct": true
            },
            {
              "trial": 53,
              "sentence": "Ich rufe dich an, sobald ich habe Zeit",
              "condition": "complex_ambiguous",
              "expected": "ungrammatical",
              "response": "ungrammatical",
              "responseTime": 4848,
              "correct": true
            },
            {
              "trial": 54,
              "sentence": "Die Großmutter hat die Schokolade gegessen",
              "condition": "simple_non_ambiguous",
              "expected": "grammatical",
              "response": "ungrammatical",
              "responseTime": 5364,
              "correct": false
            },
            {
              "trial": 55,
              "sentence": "Wir wissen nicht, ob er bei der Prüfung betrogen hat.",
              "condition": "complex_non_ambiguous",
              "expected": "grammatical",
              "response": "grammatical",
              "responseTime": 6655,
              "correct": true
            },
            {
              "trial": 56,
              "sentence": "Mit viel Freude hat die Großmutter die Schokolade gegessen",
              "condition": "simple_non_ambiguous",
              "expected": "grammatical",
              "response": "grammatical",
              "responseTime": 5062,
              "correct": true
            }
          ]
        }
      }
    },
    {
      "name": "Participant PMI1ZNLZ3A5RD - Database",
      "size": 10125,
      "lastModified": 1768143596185,
      "data": {
        "participant": {
          "id": "PMI1ZNLZ3A5RD",
          "languageGroup": "fr",
          "germanLevel": "B2",
          "learningDuration": "5_to_10_years",
          "startTime": "2025-11-16T17:27:26.464Z"
        },
        "experiment": {
          "config": {},
          "endTime": "2025-11-16T17:32:25.200Z",
          "data": [
            {
              "trial": 1,
              "sentence": "Sie zeigt mich den Weg",
              "condition": "simple_ambiguous",
              "expected": "ungrammatical",
              "response": "grammatical",
              "responseTime": 7476,
              "correct": false
            },
            {
              "trial": 2,
              "sentence": "Wann kommst du in Berlin an?",
              "condition": "simple_non_ambiguous",
              "expected": "grammatical",
              "response": "grammatical",
              "responseTime": 3484,
              "correct": true
            },
            {
              "trial": 3,
              "sentence": "Ich kann nicht einschlafen",
              "condition": "simple_non_ambiguous",
              "expected": "grammatical",
              "response": "grammatical",
              "responseTime": 4924,
              "correct": true
            },
            {
              "trial": 5,
              "sentence": "Der Spielerin gibt das Kind den Ball",
              "condition": "simple_ambiguous",
              "expected": "grammatical",
              "response": "ungrammatical",
              "responseTime": 8431,
              "correct": false
            },
            {
              "trial": 6,
              "sentence": "Sie lernt Deutsch, seit sie wohnt in Berlin",
              "condition": "complex_ambiguous",
              "expected": "ungrammatical",
              "response": "ungrammatical",
              "responseTime": 5286,
              "correct": true
            },
            {
              "trial": 7,
              "sentence": "Wir geben ihr die Schlüssel",
              "condition": "simple_non_ambiguous",
              "expected": "grammatical",
              "response": "grammatical",
              "responseTime": 3810,
              "correct": true
            },
            {
              "trial": 8,
              "sentence": "Ich kann nicht schlafen ein.",
              "condition": "simple_ambiguous",
              "expected": "ungrammatical",
              "response": "ungrammatical",
              "responseTime": 3359,
              "correct": true
            },
            {
              "trial": 9,
              "sentence": "Er ist müde, weil er hat spät ins Bett gegangen",
              "condition": "complex_ambiguous",
              "expected": "ungrammatical",
              "response": "ungrammatical",
              "responseTime": 6244,
              "correct": true
            },
            {
              "trial": 10,
              "sentence": "Er ruft mich jeden Sonntag an",
              "condition": "simple_non_ambiguous",
              "expected": "grammatical",
              "response": "grammatical",
              "responseTime": 2802,
              "correct": true
            },
            {
              "trial": 11,
              "sentence": "Ich gebe ihm das Buch",
              "condition": "simple_non_ambiguous",
              "expected": "grammatical",
              "response": "grammatical",
              "responseTime": 3519,
              "correct": true
            },
            {
              "trial": 12,
              "sentence": "Ich höre dir",
              "condition": "simple_ambiguous",
              "expected": "ungrammatical",
              "response": "grammatical",
              "responseTime": 2111,
              "correct": false
            },
            {
              "trial": 13,
              "sentence": "Ich rufe dich an, sobald ich habe Zeit",
              "condition": "complex_ambiguous",
              "expected": "ungrammatical",
              "response": "ungrammatical",
              "responseTime": 8689,
              "correct": true
            },
            {
              "trial": 14,
              "sentence": "Du räumst dein Zimmer auf",
              "condition": "simple_non_ambiguous",
              "expected": "grammatical",
              "response": "grammatical",
              "responseTime": 2989,
              "correct": true
            },
            {
              "trial": 15,
              "sentence": "Er bringt sie die Zeitung",
              "condition": "simple_ambiguous",
              "expected": "ungrammatical",
              "response": "grammatical",
              "responseTime": 3846,
              "correct": false
            },
            {
              "trial": 16,
              "sentence": "Er sieht mir",
              "condition": "simple_ambiguous",
              "expected": "ungrammatical",
              "response": "grammatical",
              "responseTime": 1564,
              "correct": false
            },
            {
              "trial": 17,
              "sentence": "Sie liebt ihn",
              "condition": "simple_non_ambiguous",
              "expected": "grammatical",
              "response": "grammatical",
              "responseTime": 2645,
              "correct": true
            },
            {
              "trial": 18,
              "sentence": "Sie zeigt mir den Weg",
              "condition": "simple_non_ambiguous",
              "expected": "grammatical",
              "response": "grammatical",
              "responseTime": 2658,
              "correct": true
            },
            {
              "trial": 19,
              "sentence": "Ich verstehe, dass du mitkommen willst",
              "condition": "complex_non_ambiguous",
              "expected": "grammatical",
              "response": "ungrammatical",
              "responseTime": 2365,
              "correct": false
            },
            {
              "trial": 20,
              "sentence": "Ihr seid eingeladen, wenn Ihr Zeit habt",
              "condition": "complex_non_ambiguous",
              "expected": "grammatical",
              "response": "grammatical",
              "responseTime": 4968,
              "correct": true
            },
            {
              "trial": 21,
              "sentence": "Ich gebe er das Buch",
              "condition": "simple_ambiguous",
              "expected": "ungrammatical",
              "response": "grammatical",
              "responseTime": 2690,
              "correct": false
            },
            {
              "trial": 22,
              "sentence": "Im Park spielen die Kinder Fußball",
              "condition": "simple_non_ambiguous",
              "expected": "grammatical",
              "response": "grammatical",
              "responseTime": 3473,
              "correct": true
            },
            {
              "trial": 23,
              "sentence": "Mach das Licht an",
              "condition": "simple_non_ambiguous",
              "expected": "grammatical",
              "response": "grammatical",
              "responseTime": 2852,
              "correct": true
            },
            {
              "trial": 24,
              "sentence": "Ich höre euch",
              "condition": "simple_non_ambiguous",
              "expected": "grammatical",
              "response": "grammatical",
              "responseTime": 1693,
              "correct": true
            },
            {
              "trial": 25,
              "sentence": "Er trinkt, weil er Durst hat",
              "condition": "complex_non_ambiguous",
              "expected": "grammatical",
              "response": "grammatical",
              "responseTime": 2347,
              "correct": true
            },
            {
              "trial": 26,
              "sentence": "Er schläft, da er müde ist.",
              "condition": "complex_non_ambiguous",
              "expected": "grammatical",
              "response": "grammatical",
              "responseTime": 4016,
              "correct": true
            },
            {
              "trial": 27,
              "sentence": "Ich gehe raus, obwohl das Wetter schlecht ist.",
              "condition": "complex_non_ambiguous",
              "expected": "grammatical",
              "response": "grammatical",
              "responseTime": 3819,
              "correct": true
            },
            {
              "trial": 28,
              "sentence": "Sie kommt nicht, da sie ist sehr krank",
              "condition": "complex_ambiguous",
              "expected": "ungrammatical",
              "response": "ungrammatical",
              "responseTime": 3751,
              "correct": true
            },
            {
              "trial": 29,
              "sentence": "Den Ball jagt der Hund im Garten",
              "condition": "simple_ambiguous",
              "expected": "grammatical",
              "response": "ungrammatical",
              "responseTime": 3983,
              "correct": false
            },
            {
              "trial": 30,
              "sentence": "Sie liebt er",
              "condition": "simple_ambiguous",
              "expected": "ungrammatical",
              "response": "grammatical",
              "responseTime": 1901,
              "correct": false
            },
            {
              "trial": 31,
              "sentence": "Er bleibt zu Hause, während seine arbeitet Frau",
              "condition": "complex_ambiguous",
              "expected": "ungrammatical",
              "response": "ungrammatical",
              "responseTime": 4687,
              "correct": true
            },
            {
              "trial": 32,
              "sentence": "Sie macht das Fenster auf",
              "condition": "simple_non_ambiguous",
              "expected": "grammatical",
              "response": "grammatical",
              "responseTime": 1981,
              "correct": true
            },
            {
              "trial": 33,
              "sentence": "Ich schenke dir eine Blume",
              "condition": "simple_non_ambiguous",
              "expected": "grammatical",
              "response": "grammatical",
              "responseTime": 3565,
              "correct": true
            },
            {
              "trial": 34,
              "sentence": "sie steht jeden Tag um sechs Uhr auf",
              "condition": "simple_non_ambiguous",
              "expected": "grammatical",
              "response": "grammatical",
              "responseTime": 3961,
              "correct": true
            },
            {
              "trial": 36,
              "sentence": "Wir bleiben drinnen, falls es regnet heute",
              "condition": "complex_non_ambiguous",
              "expected": "ungrammatical",
              "response": "ungrammatical",
              "responseTime": 4448,
              "correct": true
            },
            {
              "trial": 37,
              "sentence": "Mach an das Licht!",
              "condition": "simple_ambiguous",
              "expected": "ungrammatical",
              "response": "grammatical",
              "responseTime": 1479,
              "correct": false
            },
            {
              "trial": 38,
              "sentence": "Sie ankommen morgen",
              "condition": "simple_ambiguous",
              "expected": "ungrammatical",
              "response": "ungrammatical",
              "responseTime": 4393,
              "correct": true
            },
            {
              "trial": 39,
              "sentence": "Sie kommen morgen an",
              "condition": "simple_non_ambiguous",
              "expected": "grammatical",
              "response": "grammatical",
              "responseTime": 2028,
              "correct": true
            },
            {
              "trial": 40,
              "sentence": "Ich aufstehe jeden Tag um sieben Uhr",
              "condition": "simple_ambiguous",
              "expected": "ungrammatical",
              "response": "ungrammatical",
              "responseTime": 2386,
              "correct": true
            },
            {
              "trial": 41,
              "sentence": "Sie lachen, denn sie sind glücklich",
              "condition": "complex_non_ambiguous",
              "expected": "grammatical",
              "response": "grammatical",
              "responseTime": 2119,
              "correct": true
            },
            {
              "trial": 42,
              "sentence": "Wir wissen nicht, ob er bei der Prüfung betrogen hat.",
              "condition": "complex_non_ambiguous",
              "expected": "grammatical",
              "response": "grammatical",
              "responseTime": 7365,
              "correct": true
            },
            {
              "trial": 43,
              "sentence": "Wir fahren in Urlaub, nachdem wir haben gespart",
              "condition": "complex_ambiguous",
              "expected": "ungrammatical",
              "response": "grammatical",
              "responseTime": 2844,
              "correct": false
            },
            {
              "trial": 44,
              "sentence": "du aufräumst dein Zimmer.",
              "condition": "simple_ambiguous",
              "expected": "ungrammatical",
              "response": "ungrammatical",
              "responseTime": 2330,
              "correct": true
            },
            {
              "trial": 45,
              "sentence": "Er bringt ihnen die Zeitung",
              "condition": "simple_non_ambiguous",
              "expected": "grammatical",
              "response": "grammatical",
              "responseTime": 2812,
              "correct": true
            },
            {
              "trial": 46,
              "sentence": "Mit viel Freude hat die Großmutter die Schokolade gegessen",
              "condition": "simple_non_ambiguous",
              "expected": "grammatical",
              "response": "grammatical",
              "responseTime": 4824,
              "correct": true
            },
            {
              "trial": 47,
              "sentence": "Die Großmutter hat die Schokolade gegessen",
              "condition": "simple_non_ambiguous",
              "expected": "grammatical",
              "response": "grammatical",
              "responseTime": 2913,
              "correct": true
            },
            {
              "trial": 48,
              "sentence": "Sie aufmacht das Fenster",
              "condition": "simple_ambiguous",
              "expected": "ungrammatical",
              "response": "ungrammatical",
              "responseTime": 1924,
              "correct": true
            },
            {
              "trial": 49,
              "sentence": "Er kauft Blumen, bevor er geht nach Hause",
              "condition": "complex_ambiguous",
              "expected": "ungrammatical",
              "response": "ungrammatical",
              "responseTime": 3751,
              "correct": true
            },
            {
              "trial": 50,
              "sentence": "Den Alien erschreckt das Kind",
              "condition": "simple_ambiguous",
              "expected": "grammatical",
              "response": "grammatical",
              "responseTime": 3715,
              "correct": true
            },
            {
              "trial": 51,
              "sentence": "Er sieht mich",
              "condition": "simple_non_ambiguous",
              "expected": "grammatical",
              "response": "grammatical",
              "responseTime": 2643,
              "correct": true
            },
            {
              "trial": 52,
              "sentence": "Ich schenke dich eine Blume",
              "condition": "simple_ambiguous",
              "expected": "ungrammatical",
              "response": "grammatical",
              "responseTime": 2689,
              "correct": false
            },
            {
              "trial": 53,
              "sentence": "Langsam fährt das Auto die Straße entlang",
              "condition": "simple_non_ambiguous",
              "expected": "grammatical",
              "response": "grammatical",
              "responseTime": 5129,
              "correct": true
            },
            {
              "trial": 54,
              "sentence": "Er anruft mich jeden Sonntag",
              "condition": "simple_ambiguous",
              "expected": "ungrammatical",
              "response": "ungrammatical",
              "responseTime": 2168,
              "correct": true
            },
            {
              "trial": 55,
              "sentence": "Wann ankommst du in Berlin?",
              "condition": "simple_ambiguous",
              "expected": "ungrammatical",
              "response": "ungrammatical",
              "responseTime": 2042,
              "correct": true
            },
            {
              "trial": 56,
              "sentence": "Wir geben sie die Schlüssel",
              "condition": "simple_ambiguous",
              "expected": "ungrammatical",
              "response": "grammatical",
              "responseTime": 2341,
              "correct": false
            }
          ]
        }
      }
    },
    {
      "name": "Participant PMHVVZURGHOMH - Database",
      "size": 7684,
      "lastModified": 1768143596185,
      "data": {
        "participant": {
          "id": "PMHVVZURGHOMH",
          "languageGroup": "pt",
          "germanLevel": "B2",
          "learningDuration": "1_to_2_years",
          "startTime": "2025-11-12T10:58:22.205Z"
        },
        "experiment": {
          "config": {},
          "endTime": "2025-11-12T11:05:36.214Z",
          "data": [
            {
              "trial": 1,
              "sentence": "Sie ankommen morgen",
              "condition": "simple_ambiguous",
              "expected": "ungrammatical",
              "response": "ungrammatical",
              "responseTime": 3411,
              "correct": true
            },
            {
              "trial": 2,
              "sentence": "Er bringt sie die Zeitung",
              "condition": "simple_ambiguous",
              "expected": "ungrammatical",
              "response": "grammatical",
              "responseTime": 5748,
              "correct": false
            },
            {
              "trial": 5,
              "sentence": "Wir geben ihr die Schlüssel",
              "condition": "simple_non_ambiguous",
              "expected": "grammatical",
              "response": "ungrammatical",
              "responseTime": 6942,
              "correct": false
            },
            {
              "trial": 9,
              "sentence": "Sie aufmacht das Fenster",
              "condition": "simple_ambiguous",
              "expected": "ungrammatical",
              "response": "ungrammatical",
              "responseTime": 2813,
              "correct": true
            },
            {
              "trial": 10,
              "sentence": "Die Großmutter hat die Schokolade gegessen",
              "condition": "simple_non_ambiguous",
              "expected": "grammatical",
              "response": "grammatical",
              "responseTime": 5175,
              "correct": true
            },
            {
              "trial": 11,
              "sentence": "Den Alien erschreckt das Kind",
              "condition": "simple_ambiguous",
              "expected": "grammatical",
              "response": "ungrammatical",
              "responseTime": 7544,
              "correct": false
            },
            {
              "trial": 12,
              "sentence": "Er bleibt zu Hause, während seine arbeitet Frau",
              "condition": "complex_ambiguous",
              "expected": "ungrammatical",
              "response": "ungrammatical",
              "responseTime": 6809,
              "correct": true
            },
            {
              "trial": 13,
              "sentence": "Er ruft mich jeden Sonntag an",
              "condition": "simple_non_ambiguous",
              "expected": "grammatical",
              "response": "grammatical",
              "responseTime": 5538,
              "correct": true
            },
            {
              "trial": 14,
              "sentence": "Er sieht mich",
              "condition": "simple_non_ambiguous",
              "expected": "grammatical",
              "response": "grammatical",
              "responseTime": 3436,
              "correct": true
            },
            {
              "trial": 16,
              "sentence": "Sie lernt Deutsch, seit sie wohnt in Berlin",
              "condition": "complex_ambiguous",
              "expected": "ungrammatical",
              "response": "ungrammatical",
              "responseTime": 6154,
              "correct": true
            },
            {
              "trial": 17,
              "sentence": "Im Park spielen die Kinder Fußball",
              "condition": "simple_non_ambiguous",
              "expected": "grammatical",
              "response": "grammatical",
              "responseTime": 3531,
              "correct": true
            },
            {
              "trial": 18,
              "sentence": "Er sieht mir",
              "condition": "simple_ambiguous",
              "expected": "ungrammatical",
              "response": "ungrammatical",
              "responseTime": 5630,
              "correct": true
            },
            {
              "trial": 19,
              "sentence": "Er schläft, da er müde ist.",
              "condition": "complex_non_ambiguous",
              "expected": "grammatical",
              "response": "ungrammatical",
              "responseTime": 8569,
              "correct": false
            },
            {
              "trial": 20,
              "sentence": "Sie macht das Fenster auf",
              "condition": "simple_non_ambiguous",
              "expected": "grammatical",
              "response": "grammatical",
              "responseTime": 3187,
              "correct": true
            },
            {
              "trial": 21,
              "sentence": "Sie kommt nicht, da sie ist sehr krank",
              "condition": "complex_ambiguous",
              "expected": "ungrammatical",
              "response": "grammatical",
              "responseTime": 7971,
              "correct": false
            },
            {
              "trial": 22,
              "sentence": "Mach an das Licht!",
              "condition": "simple_ambiguous",
              "expected": "ungrammatical",
              "response": "ungrammatical",
              "responseTime": 3040,
              "correct": true
            },
            {
              "trial": 23,
              "sentence": "Wann kommst du in Berlin an?",
              "condition": "simple_non_ambiguous",
              "expected": "grammatical",
              "response": "grammatical",
              "responseTime": 4688,
              "correct": true
            },
            {
              "trial": 24,
              "sentence": "Ich höre dir",
              "condition": "simple_ambiguous",
              "expected": "ungrammatical",
              "response": "grammatical",
              "responseTime": 2966,
              "correct": false
            },
            {
              "trial": 26,
              "sentence": "Wann ankommst du in Berlin?",
              "condition": "simple_ambiguous",
              "expected": "ungrammatical",
              "response": "ungrammatical",
              "responseTime": 7060,
              "correct": true
            },
            {
              "trial": 28,
              "sentence": "Wir geben sie die Schlüssel",
              "condition": "simple_ambiguous",
              "expected": "ungrammatical",
              "response": "grammatical",
              "responseTime": 6294,
              "correct": false
            },
            {
              "trial": 29,
              "sentence": "Wir wissen nicht, ob er bei der Prüfung betrogen hat.",
              "condition": "complex_non_ambiguous",
              "expected": "grammatical",
              "response": "grammatical",
              "responseTime": 4808,
              "correct": true
            },
            {
              "trial": 30,
              "sentence": "Ich schenke dir eine Blume",
              "condition": "simple_non_ambiguous",
              "expected": "grammatical",
              "response": "grammatical",
              "responseTime": 8663,
              "correct": true
            },
            {
              "trial": 31,
              "sentence": "Ich rufe dich an, sobald ich habe Zeit",
              "condition": "complex_ambiguous",
              "expected": "ungrammatical",
              "response": "grammatical",
              "responseTime": 3314,
              "correct": false
            },
            {
              "trial": 32,
              "sentence": "Ich erkläre es, damit er es versteht",
              "condition": "complex_non_ambiguous",
              "expected": "grammatical",
              "response": "grammatical",
              "responseTime": 8342,
              "correct": true
            },
            {
              "trial": 34,
              "sentence": "Sie liebt er",
              "condition": "simple_ambiguous",
              "expected": "ungrammatical",
              "response": "ungrammatical",
              "responseTime": 8109,
              "correct": true
            },
            {
              "trial": 35,
              "sentence": "Ich schenke dich eine Blume",
              "condition": "simple_ambiguous",
              "expected": "ungrammatical",
              "response": "ungrammatical",
              "responseTime": 3024,
              "correct": true
            },
            {
              "trial": 36,
              "sentence": "Wir fahren in Urlaub, nachdem wir haben gespart",
              "condition": "complex_ambiguous",
              "expected": "ungrammatical",
              "response": "ungrammatical",
              "responseTime": 6431,
              "correct": true
            },
            {
              "trial": 39,
              "sentence": "Er trinkt, weil er Durst hat",
              "condition": "complex_non_ambiguous",
              "expected": "grammatical",
              "response": "grammatical",
              "responseTime": 5896,
              "correct": true
            },
            {
              "trial": 40,
              "sentence": "Du räumst dein Zimmer auf",
              "condition": "simple_non_ambiguous",
              "expected": "grammatical",
              "response": "grammatical",
              "responseTime": 6593,
              "correct": true
            },
            {
              "trial": 41,
              "sentence": "Den Kater jagt der Hund",
              "condition": "simple_ambiguous",
              "expected": "grammatical",
              "response": "grammatical",
              "responseTime": 7264,
              "correct": true
            },
            {
              "trial": 42,
              "sentence": "Mach das Licht an",
              "condition": "simple_non_ambiguous",
              "expected": "grammatical",
              "response": "grammatical",
              "responseTime": 2889,
              "correct": true
            }
          ]
        }
      }
    },
    {
      "name": "Participant PMHW0W0VRJK3B - Database",
      "size": 7668,
      "lastModified": 1768143596186,
      "data": {
        "participant": {
          "id": "PMHW0W0VRJK3B",
          "languageGroup": "pt",
          "germanLevel": "C1",
          "learningDuration": "2_to_5_years",
          "startTime": "2025-11-12T13:15:21.592Z"
        },
        "experiment": {
          "config": {},
          "endTime": "2025-11-12T13:22:19.757Z",
          "data": [
            {
              "trial": 1,
              "sentence": "Ich gebe ihm das Buch",
              "condition": "simple_non_ambiguous",
              "expected": "grammatical",
              "response": "grammatical",
              "responseTime": 2608,
              "correct": true
            },
            {
              "trial": 2,
              "sentence": "Sie zeigt mich den Weg",
              "condition": "simple_ambiguous",
              "expected": "ungrammatical",
              "response": "ungrammatical",
              "responseTime": 5849,
              "correct": true
            },
            {
              "trial": 3,
              "sentence": "Sie ankommen morgen",
              "condition": "simple_ambiguous",
              "expected": "ungrammatical",
              "response": "ungrammatical",
              "responseTime": 4158,
              "correct": true
            },
            {
              "trial": 5,
              "sentence": "Er sieht mir",
              "condition": "simple_ambiguous",
              "expected": "ungrammatical",
              "response": "ungrammatical",
              "responseTime": 4075,
              "correct": true
            },
            {
              "trial": 6,
              "sentence": "Er anruft mich jeden Sonntag",
              "condition": "simple_ambiguous",
              "expected": "ungrammatical",
              "response": "ungrammatical",
              "responseTime": 2637,
              "correct": true
            },
            {
              "trial": 7,
              "sentence": "Die Großmutter hat die Schokolade gegessen",
              "condition": "simple_non_ambiguous",
              "expected": "grammatical",
              "response": "grammatical",
              "responseTime": 3741,
              "correct": true
            },
            {
              "trial": 8,
              "sentence": "Wir geben sie die Schlüssel",
              "condition": "simple_ambiguous",
              "expected": "ungrammatical",
              "response": "ungrammatical",
              "responseTime": 3562,
              "correct": true
            },
            {
              "trial": 9,
              "sentence": "Ich schenke dich eine Blume",
              "condition": "simple_ambiguous",
              "expected": "ungrammatical",
              "response": "ungrammatical",
              "responseTime": 2741,
              "correct": true
            },
            {
              "trial": 10,
              "sentence": "Ich kann nicht einschlafen",
              "condition": "simple_non_ambiguous",
              "expected": "grammatical",
              "response": "grammatical",
              "responseTime": 3141,
              "correct": true
            },
            {
              "trial": 11,
              "sentence": "Er bringt sie die Zeitung",
              "condition": "simple_ambiguous",
              "expected": "ungrammatical",
              "response": "ungrammatical",
              "responseTime": 4682,
              "correct": true
            },
            {
              "trial": 12,
              "sentence": "Ich aufstehe jeden Tag um sieben Uhr",
              "condition": "simple_ambiguous",
              "expected": "ungrammatical",
              "response": "ungrammatical",
              "responseTime": 3931,
              "correct": true
            },
            {
              "trial": 13,
              "sentence": "Im Park spielen die Kinder Fußball",
              "condition": "simple_non_ambiguous",
              "expected": "grammatical",
              "response": "grammatical",
              "responseTime": 3217,
              "correct": true
            },
            {
              "trial": 14,
              "sentence": "Langsam fährt das Auto die Straße entlang",
              "condition": "simple_non_ambiguous",
              "expected": "grammatical",
              "response": "grammatical",
              "responseTime": 6323,
              "correct": true
            },
            {
              "trial": 15,
              "sentence": "Du räumst dein Zimmer auf",
              "condition": "simple_non_ambiguous",
              "expected": "grammatical",
              "response": "grammatical",
              "responseTime": 3373,
              "correct": true
            },
            {
              "trial": 16,
              "sentence": "Wann kommst du in Berlin an?",
              "condition": "simple_non_ambiguous",
              "expected": "grammatical",
              "response": "grammatical",
              "responseTime": 3805,
              "correct": true
            },
            {
              "trial": 17,
              "sentence": "Sie lernt Deutsch, seit sie wohnt in Berlin",
              "condition": "complex_ambiguous",
              "expected": "ungrammatical",
              "response": "ungrammatical",
              "responseTime": 5164,
              "correct": true
            },
            {
              "trial": 18,
              "sentence": "Wir wissen nicht, ob er bei der Prüfung betrogen hat.",
              "condition": "complex_non_ambiguous",
              "expected": "grammatical",
              "response": "grammatical",
              "responseTime": 6210,
              "correct": true
            },
            {
              "trial": 19,
              "sentence": "Wir geben ihr die Schlüssel",
              "condition": "simple_non_ambiguous",
              "expected": "grammatical",
              "response": "grammatical",
              "responseTime": 3140,
              "correct": true
            },
            {
              "trial": 20,
              "sentence": "Ich gehe raus, obwohl das Wetter schlecht ist.",
              "condition": "complex_non_ambiguous",
              "expected": "grammatical",
              "response": "grammatical",
              "responseTime": 2911,
              "correct": true
            },
            {
              "trial": 21,
              "sentence": "Mach das Licht an",
              "condition": "simple_non_ambiguous",
              "expected": "grammatical",
              "response": "grammatical",
              "responseTime": 1827,
              "correct": true
            },
            {
              "trial": 23,
              "sentence": "Ich schenke dir eine Blume",
              "condition": "simple_non_ambiguous",
              "expected": "grammatical",
              "response": "grammatical",
              "responseTime": 3064,
              "correct": true
            },
            {
              "trial": 25,
              "sentence": "Er ist müde, weil er hat spät ins Bett gegangen",
              "condition": "complex_ambiguous",
              "expected": "ungrammatical",
              "response": "ungrammatical",
              "responseTime": 3150,
              "correct": true
            },
            {
              "trial": 27,
              "sentence": "Ich verstehe, dass du mitkommen willst",
              "condition": "complex_non_ambiguous",
              "expected": "grammatical",
              "response": "grammatical",
              "responseTime": 4105,
              "correct": true
            },
            {
              "trial": 29,
              "sentence": "Sie kommen morgen an",
              "condition": "simple_non_ambiguous",
              "expected": "grammatical",
              "response": "grammatical",
              "responseTime": 2456,
              "correct": true
            },
            {
              "trial": 30,
              "sentence": "Sie liebt er",
              "condition": "simple_ambiguous",
              "expected": "ungrammatical",
              "response": "ungrammatical",
              "responseTime": 1905,
              "correct": true
            },
            {
              "trial": 31,
              "sentence": "Er sieht mich",
              "condition": "simple_non_ambiguous",
              "expected": "grammatical",
              "response": "grammatical",
              "responseTime": 3008,
              "correct": true
            },
            {
              "trial": 32,
              "sentence": "Sie macht das Fenster auf",
              "condition": "simple_non_ambiguous",
              "expected": "grammatical",
              "response": "grammatical",
              "responseTime": 4258,
              "correct": true
            },
            {
              "trial": 33,
              "sentence": "Sie aufmacht das Fenster",
              "condition": "simple_ambiguous",
              "expected": "ungrammatical",
              "response": "ungrammatical",
              "responseTime": 1481,
              "correct": true
            },
            {
              "trial": 34,
              "sentence": "Mach an das Licht!",
              "condition": "simple_ambiguous",
              "expected": "ungrammatical",
              "response": "ungrammatical",
              "responseTime": 3669,
              "correct": true
            },
            {
              "trial": 35,
              "sentence": "Er ruft mich jeden Sonntag an",
              "condition": "simple_non_ambiguous",
              "expected": "grammatical",
              "response": "grammatical",
              "responseTime": 2927,
              "correct": true
            },
            {
              "trial": 36,
              "sentence": "Ich erkläre es, damit er es versteht",
              "condition": "complex_non_ambiguous",
              "expected": "grammatical",
              "response": "grammatical",
              "responseTime": 6958,
              "correct": true
            },
            {
              "trial": 37,
              "sentence": "Er kauft Blumen, bevor er geht nach Hause",
              "condition": "complex_ambiguous",
              "expected": "ungrammatical",
              "response": "ungrammatical",
              "responseTime": 4223,
              "correct": true
            },
            {
              "trial": 40,
              "sentence": "Wir bleiben drinnen, falls es regnet heute",
              "condition": "complex_non_ambiguous",
              "expected": "ungrammatical",
              "response": "ungrammatical",
              "responseTime": 8257,
              "correct": true
            },
            {
              "trial": 41,
              "sentence": "Sie zeigt mir den Weg",
              "condition": "simple_non_ambiguous",
              "expected": "grammatical",
              "response": "grammatical",
              "responseTime": 2529,
              "correct": true
            },
            {
              "trial": 42,
              "sentence": "Sie kommt nicht, da sie ist sehr krank",
              "condition": "complex_ambiguous",
              "expected": "ungrammatical",
              "response": "ungrammatical",
              "responseTime": 3527,
              "correct": true
            }
          ]
        }
      }
    },
    {
      "name": "Participant PMHW2219P5NZS - Database",
      "size": 7728,
      "lastModified": 1768143596186,
      "data": {
        "participant": {
          "id": "PMHW2219P5NZS",
          "languageGroup": "pt",
          "germanLevel": "C1",
          "learningDuration": "2_to_5_years",
          "startTime": "2025-11-12T13:48:01.646Z"
        },
        "experiment": {
          "config": {},
          "endTime": "2025-11-12T13:58:45.092Z",
          "data": [
            {
              "trial": 1,
              "sentence": "Ich höre euch",
              "condition": "simple_non_ambiguous",
              "expected": "grammatical",
              "response": "grammatical",
              "responseTime": 2705,
              "correct": true
            },
            {
              "trial": 2,
              "sentence": "Ich gebe er das Buch",
              "condition": "simple_ambiguous",
              "expected": "ungrammatical",
              "response": "ungrammatical",
              "responseTime": 5593,
              "correct": true
            },
            {
              "trial": 4,
              "sentence": "Ich kann nicht schlafen ein.",
              "condition": "simple_ambiguous",
              "expected": "ungrammatical",
              "response": "grammatical",
              "responseTime": 6217,
              "correct": false
            },
            {
              "trial": 6,
              "sentence": "Ich aufstehe jeden Tag um sieben Uhr",
              "condition": "simple_ambiguous",
              "expected": "ungrammatical",
              "response": "ungrammatical",
              "responseTime": 8046,
              "correct": true
            },
            {
              "trial": 7,
              "sentence": "Den Kater jagt der Hund",
              "condition": "simple_ambiguous",
              "expected": "grammatical",
              "response": "grammatical",
              "responseTime": 8200,
              "correct": true
            },
            {
              "trial": 8,
              "sentence": "Im Park spielen die Kinder Fußball",
              "condition": "simple_non_ambiguous",
              "expected": "grammatical",
              "response": "grammatical",
              "responseTime": 8697,
              "correct": true
            },
            {
              "trial": 10,
              "sentence": "Den Alien erschreckt das Kind",
              "condition": "simple_ambiguous",
              "expected": "grammatical",
              "response": "ungrammatical",
              "responseTime": 8117,
              "correct": false
            },
            {
              "trial": 11,
              "sentence": "Mach das Licht an",
              "condition": "simple_non_ambiguous",
              "expected": "grammatical",
              "response": "grammatical",
              "responseTime": 3223,
              "correct": true
            },
            {
              "trial": 12,
              "sentence": "Er kauft Blumen, bevor er geht nach Hause",
              "condition": "complex_ambiguous",
              "expected": "ungrammatical",
              "response": "grammatical",
              "responseTime": 5442,
              "correct": false
            },
            {
              "trial": 13,
              "sentence": "Er sieht mich",
              "condition": "simple_non_ambiguous",
              "expected": "grammatical",
              "response": "grammatical",
              "responseTime": 3691,
              "correct": true
            },
            {
              "trial": 14,
              "sentence": "Ich erkläre es, damit er es versteht",
              "condition": "complex_non_ambiguous",
              "expected": "grammatical",
              "response": "grammatical",
              "responseTime": 5377,
              "correct": true
            },
            {
              "trial": 15,
              "sentence": "Mit viel Freude hat die Großmutter die Schokolade gegessen",
              "condition": "simple_non_ambiguous",
              "expected": "grammatical",
              "response": "grammatical",
              "responseTime": 4992,
              "correct": true
            },
            {
              "trial": 16,
              "sentence": "Sie kommt nicht, da sie ist sehr krank",
              "condition": "complex_ambiguous",
              "expected": "ungrammatical",
              "response": "ungrammatical",
              "responseTime": 7482,
              "correct": true
            },
            {
              "trial": 17,
              "sentence": "Ich kann nicht einschlafen",
              "condition": "simple_non_ambiguous",
              "expected": "grammatical",
              "response": "grammatical",
              "responseTime": 7498,
              "correct": true
            },
            {
              "trial": 18,
              "sentence": "Sie kommen morgen an",
              "condition": "simple_non_ambiguous",
              "expected": "grammatical",
              "response": "grammatical",
              "responseTime": 3907,
              "correct": true
            },
            {
              "trial": 20,
              "sentence": "Er sieht mir",
              "condition": "simple_ambiguous",
              "expected": "ungrammatical",
              "response": "ungrammatical",
              "responseTime": 2118,
              "correct": true
            },
            {
              "trial": 22,
              "sentence": "Er ruft mich jeden Sonntag an",
              "condition": "simple_non_ambiguous",
              "expected": "grammatical",
              "response": "grammatical",
              "responseTime": 3873,
              "correct": true
            },
            {
              "trial": 24,
              "sentence": "Sie liebt ihn",
              "condition": "simple_non_ambiguous",
              "expected": "grammatical",
              "response": "grammatical",
              "responseTime": 2753,
              "correct": true
            },
            {
              "trial": 28,
              "sentence": "Er bringt ihnen die Zeitung",
              "condition": "simple_non_ambiguous",
              "expected": "grammatical",
              "response": "grammatical",
              "responseTime": 8332,
              "correct": true
            },
            {
              "trial": 29,
              "sentence": "Wir wissen nicht, ob er bei der Prüfung betrogen hat.",
              "condition": "complex_non_ambiguous",
              "expected": "grammatical",
              "response": "grammatical",
              "responseTime": 4104,
              "correct": true
            },
            {
              "trial": 30,
              "sentence": "Er trinkt, weil er Durst hat",
              "condition": "complex_non_ambiguous",
              "expected": "grammatical",
              "response": "grammatical",
              "responseTime": 2839,
              "correct": true
            },
            {
              "trial": 31,
              "sentence": "Ich schenke dir eine Blume",
              "condition": "simple_non_ambiguous",
              "expected": "grammatical",
              "response": "grammatical",
              "responseTime": 4625,
              "correct": true
            },
            {
              "trial": 34,
              "sentence": "Du räumst dein Zimmer auf",
              "condition": "simple_non_ambiguous",
              "expected": "grammatical",
              "response": "grammatical",
              "responseTime": 5158,
              "correct": true
            },
            {
              "trial": 35,
              "sentence": "Wir geben sie die Schlüssel",
              "condition": "simple_ambiguous",
              "expected": "ungrammatical",
              "response": "grammatical",
              "responseTime": 6896,
              "correct": false
            },
            {
              "trial": 36,
              "sentence": "Sie lernt Deutsch, seit sie wohnt in Berlin",
              "condition": "complex_ambiguous",
              "expected": "ungrammatical",
              "response": "ungrammatical",
              "responseTime": 5761,
              "correct": true
            },
            {
              "trial": 37,
              "sentence": "Langsam fährt das Auto die Straße entlang",
              "condition": "simple_non_ambiguous",
              "expected": "grammatical",
              "response": "grammatical",
              "responseTime": 4740,
              "correct": true
            },
            {
              "trial": 38,
              "sentence": "Den Ball jagt der Hund im Garten",
              "condition": "simple_ambiguous",
              "expected": "grammatical",
              "response": "grammatical",
              "responseTime": 3724,
              "correct": true
            },
            {
              "trial": 40,
              "sentence": "Ich gehe raus, obwohl das Wetter schlecht ist.",
              "condition": "complex_non_ambiguous",
              "expected": "grammatical",
              "response": "grammatical",
              "responseTime": 4306,
              "correct": true
            },
            {
              "trial": 41,
              "sentence": "Ihr seid eingeladen, wenn Ihr Zeit habt",
              "condition": "complex_non_ambiguous",
              "expected": "grammatical",
              "response": "grammatical",
              "responseTime": 4608,
              "correct": true
            },
            {
              "trial": 42,
              "sentence": "Ich schenke dich eine Blume",
              "condition": "simple_ambiguous",
              "expected": "ungrammatical",
              "response": "ungrammatical",
              "responseTime": 2723,
              "correct": true
            }
          ]
        }
      }
    },
    {
      "name": "Participant PMHW7VCSZS7RP - Database",
      "size": 7658,
      "lastModified": 1768143596186,
      "data": {
        "participant": {
          "id": "PMHW7VCSZS7RP",
          "languageGroup": "pt",
          "germanLevel": "B2",
          "learningDuration": "less_than_1_year",
          "startTime": "2025-11-12T16:30:47.700Z"
        },
        "experiment": {
          "config": {},
          "endTime": "2025-11-12T16:35:17.534Z",
          "data": [
            {
              "trial": 1,
              "sentence": "Sie liebt er",
              "condition": "simple_ambiguous",
              "expected": "ungrammatical",
              "response": "ungrammatical",
              "responseTime": 4592,
              "correct": true
            },
            {
              "trial": 2,
              "sentence": "Die Großmutter hat die Schokolade gegessen",
              "condition": "simple_non_ambiguous",
              "expected": "grammatical",
              "response": "grammatical",
              "responseTime": 4782,
              "correct": true
            },
            {
              "trial": 3,
              "sentence": "Du räumst dein Zimmer auf",
              "condition": "simple_non_ambiguous",
              "expected": "grammatical",
              "response": "grammatical",
              "responseTime": 4500,
              "correct": true
            },
            {
              "trial": 4,
              "sentence": "Der Spielerin gibt das Kind den Ball",
              "condition": "simple_ambiguous",
              "expected": "grammatical",
              "response": "grammatical",
              "responseTime": 5295,
              "correct": true
            },
            {
              "trial": 5,
              "sentence": "Wir bleiben drinnen, falls es regnet heute",
              "condition": "complex_non_ambiguous",
              "expected": "ungrammatical",
              "response": "ungrammatical",
              "responseTime": 4781,
              "correct": true
            },
            {
              "trial": 6,
              "sentence": "Den Kater jagt der Hund",
              "condition": "simple_ambiguous",
              "expected": "grammatical",
              "response": "ungrammatical",
              "responseTime": 3515,
              "correct": false
            },
            {
              "trial": 7,
              "sentence": "Ich schenke dir eine Blume",
              "condition": "simple_non_ambiguous",
              "expected": "grammatical",
              "response": "grammatical",
              "responseTime": 2665,
              "correct": true
            },
            {
              "trial": 8,
              "sentence": "Ich gebe er das Buch",
              "condition": "simple_ambiguous",
              "expected": "ungrammatical",
              "response": "ungrammatical",
              "responseTime": 3031,
              "correct": true
            },
            {
              "trial": 9,
              "sentence": "Wann ankommst du in Berlin?",
              "condition": "simple_ambiguous",
              "expected": "ungrammatical",
              "response": "ungrammatical",
              "responseTime": 2831,
              "correct": true
            },
            {
              "trial": 10,
              "sentence": "Den Ball jagt der Hund im Garten",
              "condition": "simple_ambiguous",
              "expected": "grammatical",
              "response": "ungrammatical",
              "responseTime": 3145,
              "correct": false
            },
            {
              "trial": 11,
              "sentence": "Langsam fährt das Auto die Straße entlang",
              "condition": "simple_non_ambiguous",
              "expected": "grammatical",
              "response": "ungrammatical",
              "responseTime": 5728,
              "correct": false
            },
            {
              "trial": 12,
              "sentence": "Er bleibt zu Hause, während seine arbeitet Frau",
              "condition": "complex_ambiguous",
              "expected": "ungrammatical",
              "response": "ungrammatical",
              "responseTime": 5088,
              "correct": true
            },
            {
              "trial": 13,
              "sentence": "Sie kommt nicht, da sie ist sehr krank",
              "condition": "complex_ambiguous",
              "expected": "ungrammatical",
              "response": "ungrammatical",
              "responseTime": 5131,
              "correct": true
            },
            {
              "trial": 14,
              "sentence": "Er sieht mich",
              "condition": "simple_non_ambiguous",
              "expected": "grammatical",
              "response": "ungrammatical",
              "responseTime": 5165,
              "correct": false
            },
            {
              "trial": 15,
              "sentence": "Mach das Licht an",
              "condition": "simple_non_ambiguous",
              "expected": "grammatical",
              "response": "grammatical",
              "responseTime": 3949,
              "correct": true
            },
            {
              "trial": 16,
              "sentence": "Er bringt ihnen die Zeitung",
              "condition": "simple_non_ambiguous",
              "expected": "grammatical",
              "response": "grammatical",
              "responseTime": 2580,
              "correct": true
            },
            {
              "trial": 18,
              "sentence": "Ich gebe ihm das Buch",
              "condition": "simple_non_ambiguous",
              "expected": "grammatical",
              "response": "grammatical",
              "responseTime": 1580,
              "correct": true
            },
            {
              "trial": 19,
              "sentence": "sie steht jeden Tag um sechs Uhr auf",
              "condition": "simple_non_ambiguous",
              "expected": "grammatical",
              "response": "grammatical",
              "responseTime": 4699,
              "correct": true
            },
            {
              "trial": 20,
              "sentence": "Sie zeigt mich den Weg",
              "condition": "simple_ambiguous",
              "expected": "ungrammatical",
              "response": "grammatical",
              "responseTime": 1998,
              "correct": false
            },
            {
              "trial": 22,
              "sentence": "Ich höre dir",
              "condition": "simple_ambiguous",
              "expected": "ungrammatical",
              "response": "grammatical",
              "responseTime": 1263,
              "correct": false
            },
            {
              "trial": 23,
              "sentence": "Er bringt sie die Zeitung",
              "condition": "simple_ambiguous",
              "expected": "ungrammatical",
              "response": "grammatical",
              "responseTime": 7733,
              "correct": false
            },
            {
              "trial": 24,
              "sentence": "Mit viel Freude hat die Großmutter die Schokolade gegessen",
              "condition": "simple_non_ambiguous",
              "expected": "grammatical",
              "response": "ungrammatical",
              "responseTime": 7864,
              "correct": false
            },
            {
              "trial": 25,
              "sentence": "Im Park spielen die Kinder Fußball",
              "condition": "simple_non_ambiguous",
              "expected": "grammatical",
              "response": "grammatical",
              "responseTime": 5232,
              "correct": true
            },
            {
              "trial": 26,
              "sentence": "Er ist müde, weil er hat spät ins Bett gegangen",
              "condition": "complex_ambiguous",
              "expected": "ungrammatical",
              "response": "ungrammatical",
              "responseTime": 3731,
              "correct": true
            },
            {
              "trial": 27,
              "sentence": "Ich verstehe, dass du mitkommen willst",
              "condition": "complex_non_ambiguous",
              "expected": "grammatical",
              "response": "grammatical",
              "responseTime": 2782,
              "correct": true
            },
            {
              "trial": 28,
              "sentence": "Sie lernt Deutsch, seit sie wohnt in Berlin",
              "condition": "complex_ambiguous",
              "expected": "ungrammatical",
              "response": "ungrammatical",
              "responseTime": 3631,
              "correct": true
            },
            {
              "trial": 29,
              "sentence": "Er sieht mir",
              "condition": "simple_ambiguous",
              "expected": "ungrammatical",
              "response": "grammatical",
              "responseTime": 2048,
              "correct": false
            },
            {
              "trial": 30,
              "sentence": "Ich rufe dich an, sobald ich habe Zeit",
              "condition": "complex_ambiguous",
              "expected": "ungrammatical",
              "response": "grammatical",
              "responseTime": 2747,
              "correct": false
            },
            {
              "trial": 31,
              "sentence": "Ihr seid eingeladen, wenn Ihr Zeit habt",
              "condition": "complex_non_ambiguous",
              "expected": "grammatical",
              "response": "grammatical",
              "responseTime": 6499,
              "correct": true
            },
            {
              "trial": 32,
              "sentence": "Sie ankommen morgen",
              "condition": "simple_ambiguous",
              "expected": "ungrammatical",
              "response": "ungrammatical",
              "responseTime": 2697,
              "correct": true
            },
            {
              "trial": 33,
              "sentence": "Wir geben sie die Schlüssel",
              "condition": "simple_ambiguous",
              "expected": "ungrammatical",
              "response": "grammatical",
              "responseTime": 2449,
              "correct": false
            },
            {
              "trial": 34,
              "sentence": "Er schläft, da er müde ist.",
              "condition": "complex_non_ambiguous",
              "expected": "grammatical",
              "response": "grammatical",
              "responseTime": 6448,
              "correct": true
            },
            {
              "trial": 35,
              "sentence": "Sie aufmacht das Fenster",
              "condition": "simple_ambiguous",
              "expected": "ungrammatical",
              "response": "ungrammatical",
              "responseTime": 2481,
              "correct": true
            },
            {
              "trial": 36,
              "sentence": "Den Alien erschreckt das Kind",
              "condition": "simple_ambiguous",
              "expected": "grammatical",
              "response": "ungrammatical",
              "responseTime": 6280,
              "correct": false
            },
            {
              "trial": 37,
              "sentence": "Er kauft Blumen, bevor er geht nach Hause",
              "condition": "complex_ambiguous",
              "expected": "ungrammatical",
              "response": "ungrammatical",
              "responseTime": 6648,
              "correct": true
            },
            {
              "trial": 38,
              "sentence": "Sie lachen, denn sie sind glücklich",
              "condition": "complex_non_ambiguous",
              "expected": "grammatical",
              "response": "ungrammatical",
              "responseTime": 4045,
              "correct": false
            },
            {
              "trial": 39,
              "sentence": "Ich höre euch",
              "condition": "simple_non_ambiguous",
              "expected": "grammatical",
              "response": "grammatical",
              "responseTime": 1800,
              "correct": true
            },
            {
              "trial": 40,
              "sentence": "Sie liebt ihn",
              "condition": "simple_non_ambiguous",
              "expected": "grammatical",
              "response": "grammatical",
              "responseTime": 1763,
              "correct": true
            },
            {
              "trial": 41,
              "sentence": "Sie zeigt mir den Weg",
              "condition": "simple_non_ambiguous",
              "expected": "grammatical",
              "response": "grammatical",
              "responseTime": 2482,
              "correct": true
            },
            {
              "trial": 42,
              "sentence": "Sie kommen morgen an",
              "condition": "simple_non_ambiguous",
              "expected": "grammatical",
              "response": "grammatical",
              "responseTime": 1748,
              "correct": true
            }
          ]
        }
      }
    },
    {
      "name": "Participant PMHWEYWEJ5UCU - Database",
      "size": 7694,
      "lastModified": 1768143596186,
      "data": {
        "participant": {
          "id": "PMHWEYWEJ5UCU",
          "languageGroup": "fr",
          "germanLevel": "B2",
          "learningDuration": "5_to_10_years",
          "startTime": "2025-11-12T19:49:30.379Z"
        },
        "experiment": {
          "config": {},
          "endTime": "2025-11-12T19:53:35.608Z",
          "data": [
            {
              "trial": 1,
              "sentence": "Sie kommt nicht, da sie ist sehr krank",
              "condition": "complex_ambiguous",
              "expected": "ungrammatical",
              "response": "ungrammatical",
              "responseTime": 5592,
              "correct": true
            },
            {
              "trial": 2,
              "sentence": "Ich aufstehe jeden Tag um sieben Uhr",
              "condition": "simple_ambiguous",
              "expected": "ungrammatical",
              "response": "grammatical",
              "responseTime": 5268,
              "correct": false
            },
            {
              "trial": 3,
              "sentence": "Mach das Licht an",
              "condition": "simple_non_ambiguous",
              "expected": "grammatical",
              "response": "grammatical",
